ACC_X,ACC_Y,ACC_Z,MAG_X,MAG_Y,MAG_Z, GYRO_Y,GYRO_X,GYRO_Z,COUNT
-11.990407,0.000000,899.280518,222.222229,-360.000000,-415.000000,-1.750087,0.000000,-0.490025,0
-71.942444,0.000000,959.232544,224.444443,-346.666656,-415.000000,-1.190060,-0.420021,0.000000,1
-35.971222,-11.990407,911.270935,222.222229,-355.555542,-410.000000,-1.820091,-0.140007,-0.980049,2
-47.961628,23.980814,899.280518,224.444443,-355.555542,-415.000000,-1.540077,-0.280014,-0.490025,3
-47.961628,23.980814,887.290100,222.222229,-348.888885,-415.000000,-1.470073,-0.350018,0.280014,4
-47.961628,11.990407,911.270935,224.444443,-351.111115,-415.000000,-1.960098,-0.490025,-0.770038,5
-71.942444,0.000000,863.309326,220.000000,-353.333344,-410.000000,-1.890095,-0.910046,-0.280014,6
-59.952034,11.990407,851.318909,220.000000,-348.888885,-417.500000,-1.470073,-0.420021,0.000000,7
0.000000,23.980814,887.290100,220.000000,-355.555542,-412.500000,-2.520126,-0.490025,-0.210010,8
-23.980814,23.980814,875.299744,224.444443,-348.888885,-415.000000,-2.870144,-0.840042,-0.140007,9
-23.980814,23.980814,887.290100,220.000000,-355.555542,-412.500000,-3.150157,-0.630032,-0.070004,10
-47.961628,11.990407,887.290100,226.666672,-346.666656,-415.000000,-2.240112,-0.490025,-0.350018,11
0.000000,0.000000,863.309326,222.222229,-351.111115,-412.500000,-2.170109,-1.190060,-1.330067,12
-11.990407,0.000000,875.299744,222.222229,-351.111115,-415.000000,-2.450123,-0.840042,-1.330067,13
-23.980814,0.000000,839.328491,220.000000,-357.777771,-407.500000,-2.450123,-0.700035,-1.190060,14
-35.971222,0.000000,887.290100,222.222229,-348.888885,-420.000000,-2.590130,0.140007,-0.980049,15
-47.961628,0.000000,935.251770,222.222229,-355.555542,-412.500000,-2.240112,0.070004,-0.700035,16
-47.961628,0.000000,911.270935,226.666672,-346.666656,-417.500000,-1.680084,0.210010,-1.260063,17
-47.961628,23.980814,887.290100,220.000000,-351.111115,-410.000000,-1.610080,-0.350018,-0.560028,18
-47.961628,23.980814,899.280518,224.444443,-348.888885,-417.500000,-1.330067,0.420021,-1.050053,19
0.000000,0.000000,887.290100,222.222229,-355.555542,-410.000000,-0.980049,0.140007,-0.210010,20
-35.971222,11.990407,923.261353,224.444443,-353.333344,-415.000000,-0.840042,0.350018,0.070004,21
0.000000,23.980814,887.290100,224.444443,-351.111115,-415.000000,-0.490025,-0.140007,0.070004,22
-11.990407,11.990407,875.299744,224.444443,-346.666656,-417.500000,-0.560028,0.000000,-0.140007,23
-23.980814,0.000000,839.328491,222.222229,-357.777771,-412.500000,-0.350018,0.280014,-0.840042,24
-35.971222,23.980814,875.299744,224.444443,-351.111115,-412.500000,-0.210010,-0.070004,-1.050053,25
-47.961628,0.000000,863.309326,217.777771,-353.333344,-415.000000,-0.140007,0.140007,-1.120056,26
-23.980814,0.000000,863.309326,224.444443,-348.888885,-417.500000,-0.420021,0.210010,-0.560028,27
23.980814,0.000000,911.270935,222.222229,-355.555542,-405.000000,-0.560028,0.420021,-0.910046,28
-35.971222,11.990407,899.280518,224.444443,-353.333344,-417.500000,-0.840042,0.070004,-0.280014,29
-47.961628,23.980814,863.309326,224.444443,-351.111115,-415.000000,-1.400070,-0.420021,-1.400070,30
-11.990407,11.990407,911.270935,224.444443,-348.888885,-412.500000,-1.190060,-0.560028,-1.120056,31
-47.961628,0.000000,935.251770,222.222229,-355.555542,-415.000000,-0.770038,-0.210010,-0.630032,32
-47.961628,11.990407,911.270935,224.444443,-348.888885,-415.000000,-0.630032,0.140007,-1.260063,33
-47.961628,0.000000,887.290100,222.222229,-357.777771,-412.500000,-0.350018,-0.420021,-0.770038,34
-35.971222,23.980814,923.261353,224.444443,-346.666656,-415.000000,-0.770038,-0.280014,-1.120056,35
-95.923256,-23.980814,935.251770,222.222229,-353.333344,-407.500000,-0.910046,-0.280014,-1.190060,36
-59.952034,0.000000,887.290100,224.444443,-348.888885,-415.000000,-1.120056,-0.560028,-1.260063,37
-23.980814,0.000000,935.251770,222.222229,-355.555542,-417.500000,-1.470073,-0.280014,0.000000,38
-59.952034,11.990407,899.280518,220.000000,-348.888885,-417.500000,-2.240112,-0.630032,-0.280014,39
-23.980814,0.000000,863.309326,220.000000,-357.777771,-410.000000,-1.820091,-0.770038,0.070004,40
-35.971222,0.000000,863.309326,226.666672,-346.666656,-417.500000,-2.240112,-1.190060,-0.070004,41
-23.980814,0.000000,887.290100,222.222229,-355.555542,-410.000000,-2.450123,-0.980049,0.490025,42
-59.952034,-11.990407,923.261353,224.444443,-348.888885,-415.000000,-4.060203,-1.540077,0.770038,43
-95.923256,0.000000,887.290100,222.222229,-355.555542,-412.500000,-4.550228,-1.610080,0.910046,44
-47.961628,23.980814,887.290100,224.444443,-344.444458,-417.500000,-4.200210,-1.610080,0.980049,45
-119.904068,23.980814,863.309326,222.222229,-355.555542,-410.000000,-4.060203,-1.120056,2.170109,46
-71.942444,11.990407,899.280518,220.000000,-353.333344,-410.000000,-5.530277,-1.890095,3.080154,47
23.980814,-47.961628,887.290100,222.222229,-355.555542,-412.500000,-1.960098,-0.910046,0.000000,48
-11.990407,11.990407,899.280518,224.444443,-351.111115,-417.500000,-2.380119,-0.840042,-0.700035,49
-23.980814,-23.980814,863.309326,217.777771,-357.777771,-410.000000,-2.590130,-1.610080,-0.560028,50
-11.990407,-11.990407,899.280518,224.444443,-355.555542,-420.000000,-3.430171,-1.610080,-0.700035,51
-47.961628,-23.980814,887.290100,222.222229,-355.555542,-412.500000,-3.920196,-2.170109,-0.350018,52
-23.980814,-11.990407,899.280518,224.444443,-348.888885,-422.500000,-4.900245,-2.100105,0.280014,53
-23.980814,47.961628,911.270935,222.222229,-355.555542,-410.000000,-5.600280,-2.800140,0.280014,54
-23.980814,35.971222,911.270935,220.000000,-348.888885,-417.500000,-6.790339,-2.800140,1.330067,55
-47.961628,23.980814,911.270935,220.000000,-353.333344,-417.500000,-6.930346,-3.640182,1.750087,56
-47.961628,23.980814,875.299744,220.000000,-348.888885,-420.000000,-7.000350,-4.270214,2.800140,57
-359.712219,599.520386,1031.175049,220.000000,-357.777771,-412.500000,-7.280364,-4.970249,7.280364,58
-83.932854,0.000000,863.309326,222.222229,-353.333344,-420.000000,-1.260063,-6.020301,35.421772,59
-23.980814,119.904068,935.251770,220.000000,-357.777771,-415.000000,-8.540427,-7.000350,14.910746,60
0.000000,83.932854,911.270935,220.000000,-357.777771,-417.500000,-3.220161,-3.570179,12.530626,61
-23.980814,-23.980814,911.270935,217.777771,-360.000000,-415.000000,-1.540077,-2.800140,10.710536,62
0.000000,-11.990407,911.270935,220.000000,-351.111115,-415.000000,-2.590130,-2.730137,1.400070,63
-23.980814,0.000000,911.270935,220.000000,-351.111115,-415.000000,-0.700035,-1.540077,-0.700035,64
-59.952034,23.980814,875.299744,222.222229,-348.888885,-420.000000,-0.070004,-0.560028,-1.890095,65
-71.942444,23.980814,887.290100,217.777771,-362.222229,-410.000000,0.210010,-1.190060,-1.960098,66
-35.971222,23.980814,875.299744,217.777771,-353.333344,-415.000000,0.420021,-0.350018,-2.170109,67
-47.961628,23.980814,911.270935,217.777771,-357.777771,-410.000000,0.350018,-0.700035,-1.820091,68
0.000000,11.990407,875.299744,220.000000,-355.555542,-412.500000,0.140007,-1.190060,-2.310116,69
-47.961628,0.000000,887.290100,217.777771,-360.000000,-410.000000,2.730137,0.000000,-2.660133,70
-47.961628,0.000000,911.270935,217.777771,-351.111115,-415.000000,1.470073,-0.700035,-2.660133,71
-47.961628,23.980814,935.251770,220.000000,-355.555542,-412.500000,0.700035,-0.980049,-2.730137,72
-35.971222,23.980814,947.242188,220.000000,-357.777771,-412.500000,-0.140007,-1.610080,-2.310116,73
119.904068,143.884888,815.347656,220.000000,-360.000000,-415.000000,1.470073,-1.540077,-3.150157,74
-11.990407,35.971222,875.299744,222.222229,-353.333344,-415.000000,4.690235,0.140007,-2.730137,75
-23.980814,0.000000,863.309326,220.000000,-360.000000,-412.500000,1.190060,-0.910046,-2.590130,76
-59.952034,23.980814,911.270935,222.222229,-351.111115,-420.000000,1.890095,-0.280014,-2.590130,77
23.980814,23.980814,839.328491,217.777771,-357.777771,-410.000000,0.350018,-1.120056,-1.960098,78
0.000000,11.990407,863.309326,222.222229,-348.888885,-415.000000,6.580329,1.540077,-2.800140,79
-95.923256,0.000000,911.270935,222.222229,-355.555542,-410.000000,8.120406,1.750087,-3.360168,80
-95.923256,11.990407,911.270935,220.000000,-355.555542,-412.500000,7.560378,1.050053,-3.780189,81
-71.942444,0.000000,887.290100,220.000000,-357.777771,-410.000000,7.070354,1.330067,-3.710186,82
-23.980814,0.000000,947.242188,224.444443,-355.555542,-412.500000,6.230311,0.910046,-4.060203,83
-23.980814,23.980814,863.309326,222.222229,-357.777771,-412.500000,5.180259,0.840042,-3.920196,84
-47.961628,11.990407,863.309326,226.666672,-346.666656,-415.000000,3.920196,0.210010,-4.060203,85
-23.980814,0.000000,911.270935,220.000000,-355.555542,-412.500000,3.010150,-0.210010,-3.500175,86
-47.961628,-11.990407,923.261353,224.444443,-348.888885,-415.000000,1.960098,-0.560028,-3.500175,87
-95.923256,-23.980814,935.251770,222.222229,-357.777771,-407.500000,0.700035,-0.980049,-2.240112,88
-71.942444,11.990407,899.280518,224.444443,-355.555542,-410.000000,-0.350018,-1.120056,-1.960098,89
-23.980814,0.000000,863.309326,222.222229,-355.555542,-415.000000,-0.630032,-0.910046,-1.890095,90
-35.971222,11.990407,899.280518,222.222229,-353.333344,-415.000000,-1.400070,-1.330067,-1.120056,91
-95.923256,0.000000,887.290100,220.000000,-357.777771,-412.500000,-1.610080,-0.840042,-0.770038,92
-71.942444,11.990407,911.270935,226.666672,-348.888885,-415.000000,-2.100105,-0.910046,-0.980049,93
0.000000,0.000000,935.251770,224.444443,-360.000000,-407.500000,-1.890095,-0.700035,-1.190060,94
-35.971222,0.000000,911.270935,224.444443,-351.111115,-415.000000,-2.100105,-0.980049,-0.910046,95
-95.923256,23.980814,911.270935,220.000000,-362.222229,-407.500000,-4.830242,-1.470073,1.820091,96
-143.884888,0.000000,911.270935,222.222229,-357.777771,-415.000000,-4.130207,-1.260063,2.240112,97
-23.980814,0.000000,911.270935,217.777771,-351.111115,-415.000000,-3.780189,-0.980049,0.140007,98
-23.980814,11.990407,899.280518,226.666672,-355.555542,-412.500000,-3.290164,-0.560028,0.770038,99
0.000000,23.980814,911.270935,220.000000,-357.777771,-415.000000,-2.590130,-0.910046,-0.350018,100
0.000000,11.990407,911.270935,224.444443,-353.333344,-412.500000,-0.980049,-0.980049,-0.980049,101
23.980814,0.000000,911.270935,222.222229,-357.777771,-410.000000,-2.030102,-0.770038,-1.190060,102
-35.971222,35.971222,911.270935,220.000000,-353.333344,-415.000000,-1.330067,0.280014,-0.770038,103
-47.961628,0.000000,911.270935,220.000000,-357.777771,-410.000000,-1.750087,-0.280014,-1.050053,104
-35.971222,-11.990407,887.290100,224.444443,-348.888885,-415.000000,-1.610080,0.140007,-0.700035,105
-47.961628,23.980814,911.270935,222.222229,-355.555542,-412.500000,-1.400070,-0.210010,-0.070004,106
-23.980814,23.980814,911.270935,222.222229,-348.888885,-415.000000,-0.840042,-0.840042,-0.840042,107
0.000000,23.980814,887.290100,220.000000,-357.777771,-415.000000,-1.540077,-0.280014,-0.700035,108
-47.961628,11.990407,899.280518,224.444443,-353.333344,-415.000000,-1.820091,-1.540077,0.490025,109
-71.942444,0.000000,911.270935,222.222229,-357.777771,-410.000000,-2.030102,-2.170109,0.560028,110
-59.952034,-11.990407,887.290100,222.222229,-357.777771,-415.000000,-1.890095,-2.590130,1.190060,111
-71.942444,0.000000,935.251770,217.777771,-360.000000,-412.500000,-2.660133,-3.360168,1.610080,112
-71.942444,11.990407,923.261353,222.222229,-353.333344,-417.500000,-4.130207,-4.270214,1.400070,113
23.980814,23.980814,911.270935,222.222229,-357.777771,-410.000000,-3.220161,-3.710186,0.560028,114
-23.980814,11.990407,899.280518,222.222229,-355.555542,-410.000000,-0.910046,-3.920196,1.190060,115
-47.961628,-23.980814,911.270935,224.444443,-362.222229,-412.500000,-0.560028,-5.880294,0.490025,116
-35.971222,11.990407,887.290100,224.444443,-355.555542,-415.000000,-1.820091,-5.320266,-1.330067,117
-119.904068,0.000000,839.328491,213.333328,-362.222229,-412.500000,-1.820091,-4.970249,-1.050053,118
-119.904068,-71.942444,875.299744,222.222229,-355.555542,-417.500000,-1.190060,-8.470424,-2.870144,119
-119.904068,-71.942444,863.309326,222.222229,-360.000000,-407.500000,-1.050053,-12.250612,-11.270564,120
-215.827332,119.904068,923.261353,231.111115,-353.333344,-415.000000,8.890445,-10.780540,-10.850543,121
-263.788971,71.942444,983.213379,226.666672,-357.777771,-405.000000,7.210361,-11.200561,-9.100455,122
-323.740997,-71.942444,971.222961,222.222229,-355.555542,-410.000000,-2.660133,-10.990550,-13.370668,123
-239.808136,23.980814,959.232544,226.666672,-360.000000,-407.500000,2.310116,-18.830942,-17.150858,124
-299.760193,35.971222,935.251770,226.666672,-353.333344,-417.500000,10.780540,-25.691284,-19.810991,125
-407.673828,-47.961628,1007.194214,222.222229,-362.222229,-407.500000,12.810640,-39.481976,-15.680784,126
-335.731415,179.856110,1318.944824,224.444443,-357.777771,-405.000000,2.450123,-46.832340,-13.300665,127
167.865707,215.827332,1702.637817,224.444443,-366.666656,-407.500000,-10.290515,-7.350368,-9.450473,128
71.942444,23.980814,1870.503540,226.666672,-357.777771,-412.500000,-29.751488,14.490725,-19.390970,129
-287.769775,-71.942444,1774.580200,222.222229,-362.222229,-407.500000,-67.623383,34.231712,-54.602730,130
-251.798553,179.856110,1498.800903,220.000000,-353.333344,-415.000000,-84.424225,45.852295,-67.553375,131
-23.980814,191.846512,983.213379,222.222229,-353.333344,-415.000000,-73.223663,51.452572,-47.812389,132
-107.913666,191.846512,1127.098267,222.222229,-348.888885,-422.500000,-50.892544,49.772488,-12.600630,133
-191.846512,167.865707,1199.040771,217.777771,-360.000000,-420.000000,-25.971298,63.983200,-8.960448,134
-215.827332,191.846512,1223.021484,220.000000,-344.444458,-427.500000,-5.460273,61.883095,-8.470424,135
-359.712219,47.961628,1199.040771,213.333328,-348.888885,-422.500000,1.120056,58.942947,-10.220511,136
-407.673828,119.904068,1175.059937,222.222229,-344.444458,-430.000000,8.330417,57.052853,-15.820791,137
-431.654663,71.942444,1199.040771,220.000000,-344.444458,-422.500000,11.900595,59.852993,-24.991249,138
-491.606689,119.904068,1199.040771,220.000000,-333.333344,-430.000000,12.180609,53.272663,-38.151909,139
-575.539551,167.865707,1342.925659,222.222229,-337.777771,-432.500000,7.770389,60.273014,-54.112705,140
-587.529968,143.884888,1294.963989,228.888885,-333.333344,-432.500000,10.290515,68.813438,-70.143509,141
-647.481995,0.000000,1366.906372,226.666672,-331.111115,-432.500000,23.801189,81.274063,-86.594330,142
-695.443604,-11.990407,1378.896851,231.111115,-320.000000,-437.500000,48.722435,97.024849,-102.975151,143
-719.424438,23.980814,1510.791260,235.555557,-322.222229,-440.000000,79.523979,109.695488,-119.845993,144
-707.434021,-11.990407,1558.752930,244.444443,-311.111115,-445.000000,107.035355,122.996155,-139.796997,145
-695.443604,-23.980814,1702.637817,246.666672,-308.888885,-437.500000,127.896393,143.367172,-161.498077,146
-575.539551,-11.990407,1798.561035,257.777771,-297.777771,-440.000000,144.557236,161.078049,-179.698990,147
-143.884888,191.846512,2014.388428,262.222229,-291.111115,-440.000000,151.977600,170.038498,-186.909348,148
23.980814,299.760193,2026.378784,271.111115,-282.222229,-440.000000,168.218414,188.029404,-192.509628,149
119.904068,335.731415,2038.369263,284.444458,-266.666656,-435.000000,182.849152,207.140366,-187.889389,150
11.990407,251.798553,2086.330811,300.000000,-248.888885,-440.000000,190.479523,227.861389,-184.319214,151
0.000000,215.827332,2062.350098,304.444458,-242.222229,-440.000000,188.449417,244.312225,-185.159256,152
-623.501160,431.654663,1534.772095,315.555542,-224.444443,-442.500000,189.359467,265.033264,-179.418976,153
-887.290100,-1007.194214,1462.829712,320.000000,-222.222229,-435.000000,265.943298,370.668549,-99.824989,154
95.923256,-107.913666,1630.695313,335.555542,-202.222229,-435.000000,305.285278,363.948212,-91.214561,155
599.520386,383.693024,2230.215820,337.777771,-191.111115,-425.000000,289.884491,285.124268,-120.476028,156
563.549133,227.817734,2290.167725,353.333344,-177.777771,-422.500000,224.291214,241.092056,-139.376968,157
191.846512,143.884888,2254.196533,364.444458,-164.444443,-420.000000,140.917053,246.202316,-169.338470,158
239.808136,179.856110,2110.311768,373.333344,-142.222229,-420.000000,79.523979,278.753937,-173.538681,159
311.750580,167.865707,1774.580200,368.888885,-133.333328,-420.000000,60.483025,289.954498,-152.887650,160
335.731415,131.894485,1726.618652,375.555542,-111.111115,-420.000000,45.642284,299.404968,-139.726990,161
407.673828,0.000000,1630.695313,371.111115,-111.111115,-415.000000,47.672382,301.785095,-117.605881,162
395.683441,-23.980814,1654.676147,382.222229,-91.111115,-417.500000,55.512775,302.695129,-105.005249,163
383.693024,0.000000,1558.752930,377.777771,-84.444443,-407.500000,58.312916,303.255157,-98.214912,164
419.664246,-11.990407,1510.791260,380.000000,-75.555557,-412.500000,55.372768,305.775299,-91.914597,165
431.654663,0.000000,1318.944824,386.666656,-53.333332,-410.000000,56.002800,310.465515,-85.264267,166
359.712219,-59.952034,1247.002319,391.111115,-35.555557,-405.000000,58.242912,316.765839,-81.484077,167
263.788971,-191.846512,1175.059937,388.888885,-24.444445,-400.000000,57.402870,322.156097,-80.084007,168
263.788971,-203.836914,1091.127075,391.111115,-11.111111,-397.500000,55.302765,324.746246,-77.143860,169
263.788971,-191.846512,1007.194214,388.888885,-4.444445,-390.000000,56.002800,327.056366,-73.573677,170
359.712219,-191.846512,959.232544,393.333344,15.555555,-390.000000,60.833042,328.736450,-66.713333,171
407.673828,-191.846512,863.309326,391.111115,24.444445,-382.500000,67.693382,330.906555,-59.642982,172
491.606689,-167.865707,755.395630,397.777771,35.555557,-380.000000,70.143509,332.026611,-56.422821,173
575.539551,-143.884888,503.597107,395.555542,44.444443,-370.000000,73.153656,329.576477,-50.752537,174
599.520386,-179.856110,455.635468,404.444458,68.888885,-367.500000,74.553726,321.876099,-41.862095,175
695.443604,-191.846512,263.788971,404.444458,71.111115,-352.500000,77.983902,309.835510,-29.681484,176
707.434021,-203.836914,227.817734,406.666656,86.666664,-350.000000,81.834091,295.064758,-12.460623,177
767.386047,-263.788971,167.865707,404.444458,86.666664,-337.500000,83.794189,280.644043,6.440322,178
731.414856,-335.731415,167.865707,411.111115,95.555557,-337.500000,83.164162,265.103271,25.341267,179
647.481995,-431.654663,191.846512,411.111115,97.777779,-327.500000,77.563881,249.072449,41.932098,180
623.501160,-455.635468,191.846512,415.555542,106.666664,-325.000000,71.123558,234.161713,59.502975,181
575.539551,-647.481995,215.827332,417.777771,104.444443,-320.000000,68.393417,214.420731,79.453972,182
503.597107,-683.453186,239.808136,417.777771,108.888885,-312.500000,64.123207,192.299622,93.524673,183
431.654663,-839.328491,311.750580,426.666656,108.888885,-302.500000,51.872593,172.278610,101.505074,184
395.683441,-827.338074,263.788971,431.111115,115.555557,-305.000000,43.122158,163.528183,103.395172,185
311.750580,-815.347656,215.827332,431.111115,106.666664,-300.000000,20.931047,146.447327,105.215263,186
299.760193,-827.338074,215.827332,437.777771,115.555557,-302.500000,-9.170459,126.636330,104.585228,187
359.712219,-815.347656,119.904068,435.555542,102.222221,-295.000000,-38.011902,98.424919,105.705284,188
335.731415,-743.405273,155.875290,437.777771,113.333336,-302.500000,-58.102905,65.103256,114.455727,189
311.750580,-767.386047,71.942444,442.222229,104.444443,-297.500000,-75.743790,42.842144,124.116211,190
239.808136,-779.376465,107.913666,437.777771,100.000000,-305.000000,-92.124611,22.611132,136.576828,191
95.923256,-839.328491,119.904068,435.555542,91.111115,-310.000000,-102.625130,8.330417,148.757446,192
107.913666,-875.299744,107.913666,437.777771,95.555557,-320.000000,-107.385368,5.950297,158.627930,193
0.000000,-911.270935,23.980814,435.555542,82.222221,-315.000000,-106.475327,8.610431,166.328323,194
11.990407,-935.251770,11.990407,437.777771,80.000000,-327.500000,-104.445221,12.180609,172.208618,195
-23.980814,-911.270935,-47.961628,431.111115,73.333336,-327.500000,-104.725235,12.250612,179.138962,196
-11.990407,-935.251770,-11.990407,440.000000,68.888885,-332.500000,-105.355270,11.970598,186.349319,197
71.942444,-935.251770,47.961628,435.555542,57.777779,-332.500000,-105.915298,11.690584,190.549530,198
83.932854,-899.280518,0.000000,435.555542,55.555557,-340.000000,-105.635284,12.110605,199.089951,199
71.942444,-815.347656,-119.904068,437.777771,53.333332,-347.500000,-104.375221,12.110605,210.220520,200
119.904068,-779.376465,-179.856110,437.777771,37.777779,-352.500000,-106.545326,9.240462,222.191116,201
119.904068,-671.462830,-287.769775,433.333344,26.666666,-355.000000,-116.905846,-2.800140,233.041656,202
95.923256,-659.472412,-359.712219,435.555542,24.444445,-365.000000,-139.096954,-23.031153,241.582077,203
23.980814,-599.520386,-431.654663,426.666656,13.333333,-367.500000,-174.658737,-50.192509,248.932449,204
23.980814,-575.539551,-443.645050,426.666656,4.444445,-380.000000,-222.961151,-86.874344,255.162766,205
-23.980814,-479.616272,-551.558716,417.777771,-8.888889,-387.500000,-280.574036,-129.226456,256.912842,206
-95.923256,-527.577942,-467.625885,411.111115,-22.222221,-402.500000,-345.117249,-180.469025,251.942596,207
-311.750580,-599.520386,-335.731415,404.444458,-31.111111,-415.000000,-409.450470,-238.921951,238.151917,208
-383.693024,-635.491577,-251.798553,377.777771,-57.777779,-447.500000,-465.593292,-269.933502,218.340912,209
-527.577942,-695.443604,0.000000,357.777771,-80.000000,-457.500000,-487.714386,-330.696533,208.820450,210
-551.558716,-659.472412,119.904068,340.000000,-97.777779,-482.500000,-516.765869,-369.618500,191.879593,211
-647.481995,-671.462830,311.750580,317.777771,-117.777779,-485.000000,-525.096252,-391.599579,175.078751,212
-743.405273,-719.424438,419.664246,300.000000,-131.111115,-500.000000,-518.515930,-399.439972,159.817993,213
-863.309326,-839.328491,551.558716,271.111115,-155.555557,-507.500000,-497.444885,-400.840057,149.807495,214
-827.338074,-827.338074,683.453186,257.777771,-164.444443,-522.500000,-459.012970,-397.199860,148.057404,215
-743.405273,-791.366882,839.328491,235.555557,-182.222229,-525.000000,-400.280029,-377.388885,151.067551,216
-767.386047,-779.376465,815.347656,220.000000,-200.000000,-527.500000,-332.446625,-338.536926,155.127762,217
-887.290100,-719.424438,863.309326,188.888885,-226.666672,-527.500000,-267.483368,-287.854401,156.667831,218
-935.251770,-731.414856,839.328491,180.000000,-240.000000,-535.000000,-215.750793,-233.251663,158.557922,219
-1103.117432,-839.328491,671.462830,171.111115,-251.111115,-530.000000,-185.859299,-170.038498,151.487579,220
-1091.127075,-839.328491,575.539551,164.444443,-253.333328,-537.500000,-169.898499,-128.386414,137.976898,221
-1175.059937,-767.386047,239.808136,148.888885,-266.666656,-530.000000,-166.188309,-118.375923,130.906540,222
-1103.117432,-719.424438,203.836914,144.444443,-266.666656,-537.500000,-162.688141,-113.825691,117.045853,223
-959.232544,-599.520386,119.904068,133.333328,-275.555542,-532.500000,-164.928253,-122.016106,106.755341,224
-947.242188,-551.558716,167.865707,124.444443,-277.777771,-530.000000,-177.528885,-139.866989,100.945045,225
-815.347656,-551.558716,143.884888,100.000000,-297.777771,-527.500000,-202.380127,-160.378021,92.964653,226
-755.395630,-455.635468,179.856110,93.333336,-302.222229,-530.000000,-237.241867,-184.949249,85.684288,227
-575.539551,-287.769775,191.846512,73.333336,-317.777771,-522.500000,-274.833740,-210.430527,79.103958,228
-539.568298,-323.740997,263.788971,62.222221,-322.222229,-525.000000,-308.295410,-233.391678,76.373817,229
-959.232544,-263.788971,1007.194214,48.888889,-337.777771,-517.500000,-310.885559,-234.021698,57.122856,230
-431.654663,-275.779358,395.683441,35.555557,-344.444458,-515.000000,-332.236603,-259.852997,53.622681,231
-287.769775,-71.942444,359.712219,17.777779,-357.777771,-502.500000,-349.177460,-276.653839,55.022751,232
-263.788971,-47.961628,443.645050,4.444445,-368.888885,-497.500000,-371.088562,-297.444885,60.273014,233
-359.712219,-95.923256,527.577942,-11.111111,-377.777771,-492.500000,-382.359131,-304.585236,63.353168,234
-419.664246,-83.932854,539.568298,-46.666668,-397.777771,-472.500000,-398.599945,-304.235229,61.603081,235
-599.520386,-167.865707,503.597107,-66.666664,-415.555542,-457.500000,-402.870148,-299.614990,50.122505,236
-719.424438,-179.856110,503.597107,-75.555557,-420.000000,-450.000000,-394.259705,-300.945038,35.491776,237
-959.232544,-263.788971,551.558716,-93.333336,-435.555542,-437.500000,-376.268829,-297.024841,17.640882,238
-983.213379,-299.760193,503.597107,-97.777779,-440.000000,-422.500000,-353.867706,-286.524323,-1.610080,239
-1151.079102,-287.769775,431.654663,-113.333336,-451.111115,-417.500000,-322.716125,-263.283173,-26.671333,240
-1091.127075,-263.788971,419.664246,-117.777779,-457.777771,-407.500000,-310.465515,-250.612534,-48.722435,241
-1127.098267,-215.827332,407.673828,-126.666664,-464.444458,-395.000000,-298.704926,-241.092056,-74.203712,242
-1007.194214,-203.836914,227.817734,-133.333328,-480.000000,-375.000000,-287.574371,-238.011902,-99.124954,243
-935.251770,-71.942444,191.846512,-142.222229,-493.333344,-352.500000,-268.673431,-241.862091,-120.126007,244
-815.347656,0.000000,215.827332,-142.222229,-493.333344,-347.500000,-256.562836,-254.112701,-132.726639,245
-647.481995,167.865707,311.750580,-144.444443,-506.666656,-330.000000,-255.722794,-260.063019,-140.637039,246
-599.520386,203.836914,467.625885,-142.222229,-511.111115,-320.000000,-261.743103,-272.663635,-143.017151,247
-575.539551,239.808136,575.539551,-146.666672,-526.666687,-300.000000,-284.144196,-285.194275,-144.977249,248
-455.635468,299.760193,647.481995,-144.444443,-522.222229,-295.000000,-303.885193,-290.374512,-148.127411,249
-311.750580,455.635468,695.443604,-146.666672,-533.333313,-280.000000,-316.765839,-286.804352,-153.867691,250
-227.817734,479.616272,671.462830,-144.444443,-537.777771,-262.500000,-319.776001,-277.703888,-160.098007,251
-23.980814,647.481995,671.462830,-148.888885,-553.333313,-235.000000,-316.065796,-264.053192,-161.778091,252
-167.865707,719.424438,611.510742,-142.222229,-555.555542,-227.500000,-308.995453,-247.742386,-158.837936,253
143.884888,791.366882,551.558716,-146.666672,-562.222229,-207.500000,-302.905151,-232.901642,-153.027649,254
131.894485,779.376465,515.587524,-135.555557,-562.222229,-202.500000,-298.704926,-226.531326,-144.837250,255
47.961628,815.347656,431.654663,-140.000000,-571.111084,-185.000000,-297.864899,-227.651382,-137.556885,256
0.000000,791.366882,371.702637,-140.000000,-566.666687,-175.000000,-300.665039,-234.721741,-132.936646,257
-191.846512,767.386047,311.750580,-137.777771,-568.888916,-155.000000,-306.335327,-245.012253,-130.066498,258
-191.846512,719.424438,287.769775,-135.555557,-573.333313,-150.000000,-311.305573,-250.402527,-129.576477,259
-287.769775,743.405273,215.827332,-131.111115,-577.777771,-115.000000,-321.526093,-260.413025,-131.606583,260
-251.798553,767.386047,263.788971,-126.666664,-580.000000,-107.500000,-328.876434,-266.503326,-135.596786,261
-215.827332,743.405273,215.827332,-124.444443,-584.444458,-87.500000,-328.316406,-263.003143,-144.417221,262
-287.769775,743.405273,263.788971,-115.555557,-582.222229,-82.500000,-316.625824,-252.922653,-159.397964,263
-383.693024,743.405273,311.750580,-111.111115,-595.555542,-65.000000,-293.664673,-235.001755,-177.318863,264
-419.664246,767.386047,323.740997,-104.444443,-586.666687,-62.500000,-266.433319,-211.130554,-198.599930,265
-455.635468,839.328491,335.731415,-102.222221,-591.111084,-47.500000,-236.471832,-183.409180,-221.421066,266
-539.568298,815.347656,311.750580,-88.888885,-588.888916,-45.000000,-209.030457,-154.077713,-245.852295,267
-599.520386,839.328491,263.788971,-82.222221,-595.555542,-32.500000,-188.239410,-128.316422,-269.653473,268
-599.520386,911.270935,203.836914,-62.222221,-595.555542,-27.500000,-173.188660,-107.735390,-290.024506,269
-527.577942,1079.136597,119.904068,-48.888889,-600.000000,-22.500000,-158.207916,-90.444527,-308.015411,270
-503.597107,1151.079102,71.942444,-37.777779,-597.777771,-22.500000,-149.247467,-82.394119,-322.226105,271
-407.673828,1294.963989,-119.904068,-31.111111,-604.444458,-17.500000,-130.346512,-66.853340,-328.456421,272
-419.664246,1342.925659,-191.846512,-13.333333,-595.555542,-20.000000,-112.565628,-52.922646,-338.676941,273
-239.808136,1462.829712,-215.827332,-4.444445,-604.444458,-17.500000,-92.334618,-41.862095,-345.817291,274
-227.817734,1570.743286,-167.865707,8.888889,-602.222229,-22.500000,-59.152958,-24.291214,-347.637390,275
-311.750580,1702.637817,-23.980814,22.222221,-602.222229,-12.500000,-16.380819,1.330067,-346.587341,276
-335.731415,1654.676147,23.980814,48.888889,-597.777771,-25.000000,27.091354,27.091354,-344.557220,277
-455.635468,1582.733765,167.865707,60.000000,-606.666687,-25.000000,64.333214,46.622330,-343.227173,278
-539.568298,1594.724121,191.846512,75.555557,-600.000000,-30.000000,93.034653,64.333214,-344.837250,279
-623.501160,1642.685791,239.808136,82.222221,-604.444458,-32.500000,112.775642,80.224014,-349.667480,280
-743.405273,1798.561035,239.808136,100.000000,-597.777771,-37.500000,125.796288,93.244659,-357.227875,281
-755.395630,1798.561035,275.779358,113.333336,-604.444458,-40.000000,137.556885,107.455376,-364.928253,282
-719.424438,1870.503540,311.750580,128.888885,-597.777771,-50.000000,150.157516,115.435776,-373.818695,283
-743.405273,1906.474731,299.760193,140.000000,-595.555542,-50.000000,157.437866,130.626526,-378.858948,284
-887.290100,1894.484375,335.731415,157.777771,-588.888916,-60.000000,170.808548,141.897095,-390.829559,285
-923.261353,1930.455566,383.693024,186.666672,-586.666687,-67.500000,177.598877,148.407425,-406.370331,286
-983.213379,1894.484375,431.654663,206.666672,-580.000000,-72.500000,174.728745,149.947495,-424.151215,287
-995.203796,1906.474731,443.645050,224.444443,-575.555542,-72.500000,160.868042,147.847397,-440.392029,288
-1103.117432,1942.445923,503.597107,248.888885,-562.222229,-82.500000,140.567032,145.887299,-457.542877,289
-1103.117432,1942.445923,539.568298,262.222229,-560.000000,-80.000000,118.795944,144.767242,-473.643677,290
-1151.079102,1990.407593,719.424438,282.222229,-546.666687,-90.000000,98.774940,150.367523,-488.414429,291
-1115.107910,2026.378784,779.376465,300.000000,-535.555542,-90.000000,87.364372,165.698288,-497.304871,292
-1079.136597,2086.330811,935.251770,322.222229,-526.666687,-92.500000,84.564232,186.349319,-495.904816,293
-1055.155884,2146.282959,971.222961,355.555542,-504.444458,-105.000000,81.974098,210.220520,-489.534485,294
-911.270935,2206.234863,1055.155884,375.555542,-482.222229,-112.500000,76.163811,233.391678,-482.884155,295
-911.270935,2266.187012,1055.155884,382.222229,-471.111115,-112.500000,72.103607,245.222260,-478.823944,296
-887.290100,2326.138916,1079.136597,406.666656,-455.555542,-125.000000,61.113056,264.053192,-472.803650,297
-899.280518,2350.119873,1139.088623,415.555542,-442.222229,-120.000000,44.102207,273.503693,-465.733307,298
-887.290100,2470.023926,1031.175049,435.555542,-422.222229,-135.000000,21.771090,280.574036,-453.062653,299
-743.405273,2517.985596,1019.184631,440.000000,-411.111115,-132.500000,-5.460273,283.724182,-437.801880,300
-431.654663,2661.870361,959.232544,455.555542,-393.333344,-140.000000,-31.221561,285.264252,-415.680786,301
-359.712219,2673.860840,959.232544,462.222229,-368.888885,-150.000000,-43.612183,290.584534,-383.059143,302
-191.846512,2829.736084,935.251770,477.777771,-348.888885,-162.500000,-38.991951,302.345123,-344.277222,303
-95.923256,2829.736084,923.261353,480.000000,-335.555542,-165.000000,-22.051104,319.565979,-295.974792,304
-23.980814,2637.889648,767.386047,491.111115,-317.777771,-175.000000,-6.860343,334.056702,-243.822189,305
-59.952034,2446.042969,803.357300,491.111115,-315.555542,-175.000000,-4.060203,337.206879,-203.850189,306
-215.827332,2206.234863,695.443604,500.000000,-300.000000,-185.000000,-18.620932,332.446625,-178.718933,307
-287.769775,2146.282959,659.472412,502.222229,-295.555542,-187.500000,-28.351418,328.736450,-149.947495,308
-407.673828,1918.465088,647.481995,502.222229,-284.444458,-192.500000,-47.602379,321.386078,-136.996857,309
-419.664246,1798.561035,623.501160,506.666656,-273.333344,-195.000000,-70.843544,319.215973,-123.416176,310
-407.673828,1726.618652,527.577942,508.888885,-251.111115,-212.500000,-96.744835,321.806091,-123.346169,311
-503.597107,1558.752930,371.702637,508.888885,-253.333328,-217.500000,-119.565979,329.436462,-130.976547,312
-719.424438,1558.752930,407.673828,508.888885,-235.555557,-230.000000,-139.866989,342.317108,-139.376968,313
-911.270935,1438.848877,575.539551,502.222229,-226.666672,-232.500000,-145.117264,348.757446,-141.687088,314
-455.635468,1366.906372,119.904068,504.444458,-215.555557,-245.000000,-135.036758,356.597839,-144.347214,315
-587.529968,1342.925659,203.836914,502.222229,-204.444443,-250.000000,-151.347565,359.817993,-150.437531,316
-1151.079102,1247.002319,551.558716,504.444458,-191.111115,-265.000000,-122.016106,343.927185,-89.114456,317
-1019.184631,1306.954346,491.606689,506.666656,-186.666672,-270.000000,-113.755692,353.727692,-107.665382,318
-767.386047,1294.963989,503.597107,504.444458,-153.333328,-282.500000,-134.056702,373.678680,-127.196358,319
-767.386047,1235.011963,635.491577,495.555542,-148.888885,-277.500000,-165.138260,388.589447,-133.076660,320
-695.443604,1127.098267,623.501160,493.333344,-133.333328,-292.500000,-182.919144,426.111298,-135.946793,321
-659.472412,1079.136597,527.577942,486.666656,-120.000000,-295.000000,-212.320618,444.662231,-140.917053,322
-767.386047,863.309326,455.635468,491.111115,-102.222221,-310.000000,-229.051453,437.311859,-142.667130,323
-791.366882,863.309326,455.635468,477.777771,-91.111115,-312.500000,-232.971649,413.860687,-137.066849,324
-767.386047,767.386047,479.616272,477.777771,-75.555557,-322.500000,-230.171509,389.289459,-126.006302,325
-755.395630,791.366882,467.625885,471.111115,-62.222221,-327.500000,-225.761292,359.888000,-113.335670,326
-575.539551,695.443604,575.539551,466.666656,-53.333332,-332.500000,-227.441376,327.756378,-102.275116,327
-515.587524,695.443604,647.481995,451.111115,-33.333332,-342.500000,-234.161713,304.795258,-90.724541,328
-407.673828,671.462830,671.462830,448.888885,-17.777779,-355.000000,-238.081909,291.704590,-73.573677,329
-359.712219,647.481995,659.472412,437.777771,-13.333333,-352.500000,-236.541824,281.624084,-57.122856,330
-287.769775,623.501160,695.443604,431.111115,4.444445,-365.000000,-233.951706,280.084015,-43.752190,331
-203.836914,635.491577,719.424438,422.222229,4.444445,-365.000000,-233.111664,285.404266,-33.811691,332
-191.846512,791.366882,671.462830,420.000000,17.777779,-370.000000,-231.781586,286.944336,-28.981449,333
-11.990407,815.347656,755.395630,413.333344,20.000000,-375.000000,-254.182709,322.926147,-33.181660,334
167.865707,647.481995,623.501160,406.666656,37.777779,-382.500000,-278.613922,370.948547,-19.320967,335
179.856110,611.510742,635.491577,386.666656,57.777779,-382.500000,-298.774933,373.468689,-5.110256,336
191.846512,527.577942,623.501160,380.000000,71.111115,-392.500000,-316.485840,362.338135,5.600280,337
203.836914,539.568298,611.510742,380.000000,71.111115,-392.500000,-325.306274,341.757080,18.830942,338
311.750580,551.558716,623.501160,357.777771,95.555557,-402.500000,-325.866302,324.186218,35.281765,339
335.731415,467.625885,635.491577,351.111115,88.888885,-397.500000,-323.206177,312.985657,55.862793,340
287.769775,407.673828,767.386047,342.222229,102.222221,-405.000000,-318.725952,307.385376,79.523979,341
275.779358,359.712219,791.366882,333.333344,104.444443,-405.000000,-312.075592,307.735382,102.205109,342
167.865707,239.808136,839.328491,326.666656,115.555557,-407.500000,-302.485138,312.285614,123.206161,343
167.865707,203.836914,791.366882,320.000000,122.222221,-405.000000,-291.284576,318.725952,138.046906,344
167.865707,47.961628,719.424438,308.888885,140.000000,-407.500000,-287.364380,321.316071,147.217361,345
119.904068,-11.990407,695.443604,297.777771,137.777771,-405.000000,-284.914246,324.046204,150.927551,346
0.000000,0.000000,695.443604,297.777771,151.111115,-407.500000,-286.314331,327.896393,156.947845,347
47.961628,-59.952034,659.472412,291.111115,153.333328,-402.500000,-288.274414,335.036743,161.638077,348
143.884888,-95.923256,503.597107,291.111115,168.888885,-402.500000,-288.624420,338.886963,174.308716,349
119.904068,-95.923256,455.635468,277.777771,171.111115,-400.000000,-287.084351,333.986694,186.139313,350
95.923256,-191.846512,359.712219,273.333344,175.555557,-400.000000,-284.424225,327.756378,199.579987,351
131.894485,-263.788971,275.779358,273.333344,182.222229,-395.000000,-279.033966,321.036041,214.420731,352
71.942444,-479.616272,191.846512,268.888885,193.333328,-397.500000,-265.243256,315.785797,227.441376,353
47.961628,-443.645050,179.856110,262.222229,193.333328,-382.500000,-242.422119,314.105713,240.112015,354
71.942444,-527.577942,47.961628,271.111115,200.000000,-387.500000,-222.471130,310.815552,249.072449,355
119.904068,-635.491577,11.990407,268.888885,202.222229,-377.500000,-214.560730,300.525024,254.882751,356
167.865707,-695.443604,-71.942444,266.666656,213.333328,-377.500000,-221.281067,292.264618,259.222961,357
179.856110,-755.395630,-119.904068,266.666656,206.666672,-370.000000,-228.071411,270.143524,260.343018,358
191.846512,-791.366882,-191.846512,268.888885,220.000000,-375.000000,-245.852295,242.912155,263.703186,359
191.846512,-899.280518,-227.817734,266.666656,213.333328,-370.000000,-266.993347,212.320618,265.593292,360
119.904068,-1007.194214,-239.808136,266.666656,217.777771,-367.500000,-287.784393,180.399017,267.973389,361
107.913666,-1031.175049,-251.798553,262.222229,208.888885,-372.500000,-307.805389,150.157516,268.393433,362
95.923256,-1175.059937,-263.788971,262.222229,215.555557,-377.500000,-327.616394,121.946098,266.363312,363
107.913666,-1199.040771,-251.798553,255.555557,211.111115,-380.000000,-344.697235,95.484772,264.753235,364
119.904068,-1294.963989,-215.827332,257.777771,213.333328,-387.500000,-357.507874,74.483727,260.763031,365
191.846512,-1294.963989,-227.817734,248.888885,204.444443,-385.000000,-368.568420,57.962898,255.022751,366
191.846512,-1175.059937,0.000000,248.888885,208.888885,-397.500000,-368.848450,50.402519,252.502625,367
227.817734,-1187.050293,23.980814,244.444443,200.000000,-395.000000,-365.908295,54.882744,250.332520,368
239.808136,-1103.117432,71.942444,237.777771,204.444443,-405.000000,-354.987762,64.053200,254.812744,369
215.827332,-1103.117432,35.971222,231.111115,193.333328,-407.500000,-346.167297,70.423523,257.752899,370
143.884888,-1127.098267,-23.980814,228.888885,200.000000,-412.500000,-323.766205,80.364021,266.083313,371
59.952034,-1163.069458,-71.942444,222.222229,193.333328,-407.500000,-296.604828,88.974449,274.973755,372
-23.980814,-1151.079102,-167.865707,224.444443,200.000000,-410.000000,-266.503326,96.464821,283.234161,373
-59.952034,-1151.079102,-191.846512,222.222229,188.888885,-410.000000,-237.171860,102.345116,290.584534,374
-143.884888,-1079.136597,-263.788971,224.444443,195.555557,-412.500000,-212.880646,105.495277,296.464813,375
-179.856110,-1079.136597,-335.731415,224.444443,188.888885,-410.000000,-196.359818,105.005249,300.805054,376
-191.846512,-1079.136597,-527.577942,228.888885,193.333328,-412.500000,-189.079453,98.704933,302.415131,377
-275.779358,-1139.088623,-635.491577,231.111115,188.888885,-412.500000,-190.829544,83.444176,298.284912,378
-479.616272,-1294.963989,-863.309326,233.333328,188.888885,-415.000000,-204.200211,56.282814,286.384308,379
-551.558716,-1342.925659,-935.251770,228.888885,175.555557,-410.000000,-230.731537,18.480925,265.733276,380
-767.386047,-1486.810547,-1055.155884,231.111115,180.000000,-420.000000,-272.523621,-29.191460,237.941895,381
-875.299744,-1570.743286,-995.203796,222.222229,168.888885,-422.500000,-297.514893,-55.862793,210.920547,382
-959.232544,-1774.580200,-959.232544,220.000000,171.111115,-440.000000,-348.337433,-112.075607,195.729782,383
-1055.155884,-1822.541870,-887.290100,206.666672,162.222229,-440.000000,-398.949951,-167.448380,162.338120,384
-983.213379,-1942.445923,-647.481995,195.555557,153.333328,-452.500000,-440.882050,-220.161011,125.866295,385
-995.203796,-1918.465088,-575.539551,182.222229,148.888885,-462.500000,-465.103271,-256.492828,85.404274,386
-887.290100,-1870.503540,-431.654663,155.555557,131.111115,-485.000000,-462.653137,-272.733643,49.212460,387
-767.386047,-1762.589844,-371.702637,135.555557,111.111115,-487.500000,-435.771790,-270.983551,21.421072,388
-599.520386,-1582.733765,-311.750580,120.000000,113.333336,-495.000000,-391.599579,-254.812744,5.180259,389
-539.568298,-1486.810547,-299.760193,104.444443,95.555557,-497.500000,-340.427032,-232.201614,0.280014,390
-407.673828,-1294.963989,-407.673828,95.555557,91.111115,-512.500000,-293.594696,-213.790695,3.640182,391
-407.673828,-1258.992798,-431.654663,75.555557,86.666664,-505.000000,-254.742737,-201.120056,10.570529,392
-383.693024,-1223.021484,-479.616272,75.555557,84.444443,-517.500000,-218.760941,-195.099762,18.690935,393
-383.693024,-1199.040771,-407.673828,64.444443,73.333336,-520.000000,-186.559326,-194.609726,23.171160,394
-359.712219,-1127.098267,-359.712219,57.777779,64.444443,-517.500000,-172.278610,-198.389923,25.061253,395
-335.731415,-1079.136597,-335.731415,42.222221,51.111111,-520.000000,-147.427368,-206.160309,27.721386,396
-359.712219,-1055.155884,-167.865707,40.000000,48.888889,-530.000000,-132.936646,-215.190765,28.141407,397
-359.712219,-1067.146240,-167.865707,28.888889,31.111111,-527.500000,-128.806442,-223.941193,26.671333,398
-383.693024,-983.213379,23.980814,28.888889,31.111111,-537.500000,-133.076660,-229.961502,22.821142,399
-395.683441,-971.222961,95.923256,20.000000,15.555555,-530.000000,-143.367172,-234.511734,18.060904,400
-479.616272,-983.213379,191.846512,13.333333,13.333333,-537.500000,-156.037796,-238.781937,11.550578,401
-539.568298,-995.203796,287.769775,4.444445,0.000000,-535.000000,-165.138260,-240.812042,5.740287,402
-623.501160,-959.232544,479.616272,-4.444445,-4.444445,-542.500000,-171.368576,-240.882050,-1.750087,403
-659.472412,-923.261353,515.587524,-24.444445,-28.888889,-537.500000,-178.368927,-239.621979,-6.790339,404
-791.366882,-1007.194214,623.501160,-31.111111,-28.888889,-545.000000,-191.809586,-238.641937,-11.690584,405
-779.376465,-1007.194214,707.434021,-42.222221,-44.444443,-537.500000,-216.660843,-239.901993,-18.970949,406
-863.309326,-1055.155884,815.347656,-51.111111,-48.888889,-542.500000,-231.851593,-241.792099,-23.521175,407
-851.318909,-995.203796,863.309326,-68.888885,-60.000000,-537.500000,-264.053192,-245.432281,-36.401821,408
-791.366882,-959.232544,887.290100,-77.777779,-62.222221,-535.000000,-291.984589,-244.172211,-51.242561,409
-815.347656,-911.270935,911.270935,-93.333336,-80.000000,-527.500000,-310.255524,-245.292267,-57.122856,410
-767.386047,-911.270935,839.328491,-108.888885,-80.000000,-530.000000,-319.705994,-226.601334,-70.353516,411
-755.395630,-851.318909,851.318909,-126.666664,-88.888885,-525.000000,-320.686035,-209.730484,-82.044106,412
-743.405273,-767.386047,695.443604,-157.777771,-106.666664,-517.500000,-316.835846,-194.889740,-90.444527,413
-719.424438,-755.395630,635.491577,-175.555557,-120.000000,-505.000000,-311.445587,-183.479172,-96.464821,414
-599.520386,-599.520386,575.539551,-188.888885,-124.444443,-502.500000,-307.595398,-180.959045,-101.785088,415
-551.558716,-539.568298,575.539551,-211.111115,-135.555557,-497.500000,-304.445221,-183.479172,-105.705284,416
-407.673828,-479.616272,599.520386,-215.555557,-140.000000,-490.000000,-296.184814,-185.649292,-106.475327,417
-347.721802,-443.645050,611.510742,-228.888885,-153.333328,-480.000000,-283.374176,-184.249222,-106.895348,418
-191.846512,-479.616272,695.443604,-242.222229,-155.555557,-475.000000,-276.023804,-182.359116,-107.805389,419
-203.836914,-359.712219,815.347656,-257.777771,-166.666672,-465.000000,-260.483032,-177.948898,-110.185509,420
-167.865707,-407.673828,959.232544,-275.555542,-177.777771,-457.500000,-245.922302,-172.418625,-108.295418,421
-143.884888,-407.673828,1007.194214,-291.111115,-195.555557,-442.500000,-236.681839,-168.988449,-105.005249,422
0.000000,-335.731415,1127.098267,-295.555542,-200.000000,-437.500000,-240.812042,-163.878189,-103.605179,423
95.923256,-251.798553,1139.088623,-315.555542,-213.333328,-422.500000,-253.832687,-154.777740,-99.544975,424
239.808136,-167.865707,1031.175049,-317.777771,-215.555557,-420.000000,-273.643677,-144.207214,-95.764786,425
299.760193,-95.923256,983.213379,-333.333344,-226.666672,-402.500000,-296.464813,-136.156815,-94.574730,426
359.712219,-119.904068,887.290100,-346.666656,-233.333328,-395.000000,-320.336029,-133.986694,-93.034653,427
275.779358,-71.942444,875.299744,-353.333344,-244.444443,-377.500000,-338.326935,-132.096603,-92.054604,428
167.865707,-95.923256,767.386047,-368.888885,-253.333328,-367.500000,-348.827454,-126.286316,-92.194611,429
131.894485,-71.942444,743.405273,-391.111115,-273.333344,-337.500000,-353.587677,-115.365768,-92.684639,430
23.980814,-47.961628,575.539551,-395.555542,-275.555542,-330.000000,-357.577881,-109.345467,-92.614632,431
35.971222,-23.980814,479.616272,-406.666656,-286.666656,-307.500000,-357.927887,-97.794891,-92.404625,432
167.865707,95.923256,311.750580,-408.888885,-291.111115,-297.500000,-355.477783,-92.404625,-89.534477,433
203.836914,131.894485,299.760193,-415.555542,-306.666656,-280.000000,-345.397278,-89.814491,-83.724190,434
335.731415,239.808136,215.827332,-420.000000,-311.111115,-270.000000,-327.616394,-88.764442,-69.373466,435
203.836914,203.836914,275.779358,-428.888885,-317.777771,-250.000000,-317.185852,-91.984604,-55.302765,436
0.000000,-47.961628,311.750580,-433.333344,-322.222229,-237.500000,-327.756378,-103.395172,-55.302765,437
-71.942444,-107.913666,431.654663,-442.222229,-344.444458,-205.000000,-350.577545,-113.055656,-65.383270,438
-47.961628,-47.961628,503.597107,-440.000000,-346.666656,-195.000000,-377.458862,-111.935600,-87.224365,439
-11.990407,-23.980814,551.558716,-444.444458,-360.000000,-170.000000,-397.759888,-102.835144,-112.145607,440
191.846512,167.865707,503.597107,-442.222229,-362.222229,-157.500000,-397.269867,-82.044106,-127.756386,441
191.846512,203.836914,419.664246,-442.222229,-380.000000,-137.500000,-372.768646,-53.482674,-130.906540,442
239.808136,263.788971,215.827332,-442.222229,-377.777771,-132.500000,-334.966766,-28.911446,-124.676231,443
203.836914,275.779358,155.875290,-435.555542,-393.333344,-115.000000,-316.485840,-21.001051,-119.145958,444
191.846512,335.731415,71.942444,-437.777771,-400.000000,-105.000000,-283.304169,-14.420721,-107.525375,445
203.836914,323.740997,95.923256,-433.333344,-411.111115,-97.500000,-258.452911,-17.570879,-98.214912,446
191.846512,287.769775,191.846512,-426.666656,-411.111115,-82.500000,-239.901993,-23.521175,-93.104660,447
143.884888,251.798553,155.875290,-426.666656,-422.222229,-72.500000,-220.091003,-23.941196,-93.314667,448
23.980814,167.865707,239.808136,-415.555542,-417.777771,-72.500000,-201.330063,-17.710886,-97.794891,449
23.980814,167.865707,287.769775,-413.333344,-433.333344,-57.500000,-183.759186,-9.520476,-104.585228,450
23.980814,191.846512,455.635468,-402.222229,-428.888885,-60.000000,-169.898499,-2.800140,-111.235565,451
47.961628,167.865707,479.616272,-404.444458,-440.000000,-52.500000,-156.807846,2.310116,-118.165909,452
143.884888,191.846512,575.539551,-393.333344,-442.222229,-50.000000,-139.096954,9.100455,-121.876099,453
143.884888,215.827332,587.529968,-388.888885,-444.444458,-50.000000,-112.075607,22.961149,-119.495979,454
119.904068,143.884888,743.405273,-380.000000,-446.666656,-50.000000,-80.784042,41.792091,-114.385719,455
131.894485,155.875290,815.347656,-375.555542,-453.333344,-47.500000,-65.733284,50.332516,-110.255516,456
119.904068,95.923256,959.232544,-368.888885,-453.333344,-55.000000,-40.042004,64.333214,-109.345467,457
143.884888,107.913666,935.251770,-362.222229,-457.777771,-50.000000,-21.841093,75.533775,-111.025551,458
119.904068,191.846512,935.251770,-357.777771,-457.777771,-60.000000,-3.220161,90.374519,-113.335670,459
95.923256,155.875290,911.270935,-353.333344,-464.444458,-60.000000,13.510675,107.875397,-117.325867,460
-95.923256,71.942444,839.328491,-344.444458,-457.777771,-67.500000,24.781239,123.276169,-124.396217,461
-167.865707,11.990407,803.357300,-342.222229,-464.444458,-70.000000,33.811691,134.826736,-136.786835,462
-167.865707,0.000000,719.424438,-333.333344,-460.000000,-82.500000,35.981800,140.287018,-157.367874,463
-119.904068,71.942444,635.491577,-317.777771,-473.333344,-82.500000,29.121456,142.247116,-186.419327,464
23.980814,287.769775,527.577942,-308.888885,-466.666656,-92.500000,16.380819,137.626877,-214.280716,465
131.894485,347.721802,431.654663,-308.888885,-477.777771,-90.000000,5.320266,128.876450,-236.681839,466
287.769775,527.577942,287.769775,-297.777771,-475.555542,-95.000000,-3.640182,115.365768,-253.202667,467
383.693024,599.520386,263.788971,-288.888885,-484.444458,-92.500000,-8.330417,108.085403,-265.453278,468
575.539551,815.347656,263.788971,-277.777771,-480.000000,-100.000000,-9.030452,94.434723,-269.863495,469
623.501160,863.309326,263.788971,-271.111115,-488.888885,-97.500000,-7.560378,83.444176,-277.773895,470
743.405273,959.232544,239.808136,-264.444458,-488.888885,-102.500000,-2.310116,75.253761,-282.534119,471
755.395630,983.213379,263.788971,-246.666672,-500.000000,-105.000000,7.980399,69.793488,-286.244324,472
791.366882,1055.155884,311.750580,-235.555557,-493.333344,-102.500000,22.891146,71.893593,-286.524323,473
815.347656,1127.098267,395.683441,-231.111115,-506.666656,-105.000000,49.352467,83.304169,-281.414063,474
863.309326,1199.040771,599.520386,-220.000000,-500.000000,-115.000000,80.014000,102.205109,-272.383636,475
911.270935,1247.002319,719.424438,-215.555557,-513.333313,-115.000000,115.505775,127.756386,-259.362976,476
959.232544,1342.925659,983.213379,-200.000000,-506.666656,-127.500000,158.977951,161.078049,-241.372070,477
1067.146240,1354.916016,1115.107910,-197.777771,-517.777771,-125.000000,204.480225,196.359818,-219.390976,478
1270.983154,1438.848877,1294.963989,-188.888885,-515.555542,-142.500000,253.132660,228.771439,-187.959396,479
1390.887207,1522.781738,1318.944824,-182.222229,-515.555542,-162.500000,296.324829,262.583130,-155.337769,480
1726.618652,1606.714600,1414.868042,-164.444443,-511.111115,-180.000000,314.595734,277.703888,-138.256912,481
1726.618652,1630.695313,1390.887207,-162.222229,-511.111115,-192.500000,341.057068,305.355286,-103.745186,482
1726.618652,1606.714600,1366.906372,-153.333328,-502.222229,-210.000000,355.617798,335.106750,-72.943649,483
1690.647461,1534.772095,1294.963989,-148.888885,-502.222229,-225.000000,360.518036,358.907959,-45.572281,484
1414.868042,1270.983154,1175.059937,-137.777771,-493.333344,-250.000000,355.617798,370.388519,-21.421072,485
1318.944824,1187.050293,1103.117432,-133.333328,-493.333344,-255.000000,340.076996,368.848450,-6.020301,486
1151.079102,959.232544,983.213379,-122.222221,-482.222229,-272.500000,317.605896,355.407776,0.770038,487
1043.165405,923.261353,899.280518,-117.777779,-477.777771,-287.500000,289.604492,334.476715,-0.210010,488
959.232544,791.366882,767.386047,-102.222221,-466.666656,-315.000000,259.152954,308.015411,-9.170459,489
863.309326,731.414856,803.357300,-100.000000,-468.888885,-320.000000,226.671341,283.024139,-26.951347,490
623.501160,623.501160,839.328491,-91.111115,-455.555542,-332.500000,192.719635,259.712982,-47.112354,491
563.549133,539.568298,1019.184631,-88.888885,-457.777771,-335.000000,159.817993,238.431931,-66.713333,492
575.539551,335.731415,1390.887207,-77.777779,-446.666656,-345.000000,145.957306,230.031509,-76.373817,493
575.539551,347.721802,1450.839233,-77.777779,-451.111115,-347.500000,126.706337,224.011200,-91.704590,494
695.443604,407.673828,1654.676147,-66.666664,-437.777771,-362.500000,121.106056,234.021698,-103.815193,495
743.405273,467.625885,1642.685791,-57.777779,-435.555542,-367.500000,123.346169,250.892548,-110.255516,496
839.328491,575.539551,1486.810547,-40.000000,-422.222229,-387.500000,126.636330,269.443481,-110.325516,497
827.338074,599.520386,1414.868042,-37.777779,-422.222229,-390.000000,126.776337,282.884155,-107.105354,498
791.366882,575.539551,1247.002319,-31.111111,-411.111115,-407.500000,123.066154,288.134399,-103.955200,499
755.395630,563.549133,1127.098267,-24.444445,-413.333344,-412.500000,127.616379,286.034302,-103.535179,500
671.462830,527.577942,1031.175049,-11.111111,-400.000000,-425.000000,138.046906,278.683929,-105.565277,501
659.472412,467.625885,1031.175049,-6.666667,-397.777771,-422.500000,144.837250,269.513489,-110.255516,502
575.539551,383.693024,959.232544,4.444445,-384.444458,-435.000000,143.787186,259.572968,-117.255867,503
539.568298,371.702637,947.242188,13.333333,-382.222229,-435.000000,137.066849,246.412323,-127.126358,504
431.654663,359.712219,767.386047,17.777779,-371.111115,-445.000000,125.936295,238.641937,-141.267059,505
479.616272,371.702637,719.424438,33.333332,-362.222229,-455.000000,120.196014,217.640884,-148.477432,506
599.520386,527.577942,671.462830,44.444443,-355.555542,-462.500000,109.485474,191.389572,-160.588028,507
803.357300,635.491577,719.424438,51.111111,-355.555542,-465.000000,105.845291,165.838287,-162.408127,508
1223.021484,839.328491,935.251770,60.000000,-340.000000,-472.500000,109.975502,147.077362,-150.297516,509
1354.916016,875.299744,1115.107910,66.666664,-340.000000,-470.000000,115.295769,133.496674,-129.996506,510
1654.676147,1103.117432,1366.906372,75.555557,-331.111115,-482.500000,120.756042,123.766190,-100.245010,511
1714.628174,851.318909,1534.772095,82.222221,-335.555542,-482.500000,123.626183,119.845993,-59.362968,512
1630.695313,719.424438,1918.465088,86.666664,-324.444458,-482.500000,108.365417,118.865944,-41.442074,513
1522.781738,623.501160,1966.426758,93.333336,-320.000000,-490.000000,89.674484,137.486877,-29.191460,514
1342.925659,551.558716,1870.503540,102.222221,-308.888885,-495.000000,74.833740,158.837936,-20.791040,515
1235.011963,539.568298,1846.522705,102.222221,-306.666656,-492.500000,60.903046,178.228912,-20.861044,516
1127.098267,479.616272,1606.714600,108.888885,-291.111115,-502.500000,53.272663,196.079803,-22.471125,517
1079.136597,527.577942,1582.733765,108.888885,-291.111115,-497.500000,52.572628,203.990204,-21.981100,518
983.213379,575.539551,1462.829712,115.555557,-277.777771,-507.500000,55.092754,216.450821,-19.600981,519
923.261353,575.539551,1414.868042,115.555557,-280.000000,-502.500000,56.982849,222.751144,-14.280714,520
839.328491,455.635468,1318.944824,120.000000,-262.222229,-512.500000,55.582779,224.011200,-6.720336,521
839.328491,467.625885,1330.935181,122.222221,-253.333328,-515.000000,53.762688,219.320969,-1.260063,522
791.366882,383.693024,1462.829712,133.333328,-235.555557,-517.500000,53.902695,213.370667,0.840042,523
875.299744,335.731415,1486.810547,131.111115,-235.555557,-517.500000,55.232761,213.930695,4.970249,524
839.328491,263.788971,1462.829712,137.777771,-217.777771,-522.500000,53.902695,216.800842,9.730487,525
875.299744,275.779358,1462.829712,137.777771,-217.777771,-522.500000,46.902344,215.680786,13.300665,526
767.386047,191.846512,1414.868042,142.222229,-200.000000,-527.500000,39.831993,209.870499,14.980749,527
731.414856,191.846512,1438.848877,144.444443,-200.000000,-522.500000,33.741688,201.890091,18.130907,528
623.501160,71.942444,1558.752930,146.666672,-186.666672,-535.000000,26.881344,196.779846,19.600981,529
635.491577,35.971222,1594.724121,148.888885,-177.777771,-530.000000,23.381168,194.749741,20.581030,530
719.424438,95.923256,1606.714600,153.333328,-162.222229,-535.000000,18.900946,195.519775,23.171160,531
719.424438,107.913666,1594.724121,151.111115,-160.000000,-535.000000,16.380819,201.610077,27.161358,532
719.424438,95.923256,1510.791260,155.555557,-144.444443,-535.000000,12.880644,210.430527,33.531677,533
731.414856,107.913666,1498.800903,151.111115,-142.222229,-532.500000,8.120406,213.370667,39.831993,534
767.386047,95.923256,1486.810547,153.333328,-128.888885,-537.500000,-0.490025,213.650681,44.662235,535
767.386047,131.894485,1450.839233,151.111115,-126.666664,-535.000000,-7.700385,214.490723,49.002449,536
719.424438,167.865707,1294.963989,157.777771,-111.111115,-542.500000,-15.260763,218.130905,54.812740,537
671.462830,95.923256,1199.040771,155.555557,-102.222221,-537.500000,-23.941196,215.330765,57.962898,538
551.558716,-23.980814,1127.098267,157.777771,-95.555557,-537.500000,-32.901646,207.140366,61.253063,539
443.645050,-95.923256,1139.088623,151.111115,-80.000000,-532.500000,-39.831993,200.000000,64.403221,540
239.808136,-191.846512,1055.155884,157.777771,-68.888885,-537.500000,-39.481976,203.850189,66.923347,541
203.836914,-191.846512,1007.194214,151.111115,-66.666664,-537.500000,-38.711937,208.890442,69.373466,542
119.904068,-311.750580,1079.136597,155.555557,-48.888889,-540.000000,-30.661533,212.320618,68.813438,543
47.961628,-371.702637,1043.165405,151.111115,-53.333332,-535.000000,-9.100455,197.479874,68.043404,544
-47.961628,-287.769775,1151.079102,160.000000,-35.555557,-537.500000,18.130907,202.870148,77.073853,545
-35.971222,-335.731415,1139.088623,157.777771,-31.111111,-532.500000,31.081554,254.882751,71.403572,546
119.904068,-479.616272,1055.155884,160.000000,-17.777779,-537.500000,36.331818,292.124603,61.743088,547
131.894485,-371.702637,1007.194214,168.888885,2.222222,-525.000000,46.202312,294.014709,56.982849,548
191.846512,-215.827332,839.328491,171.111115,17.777779,-525.000000,60.413021,296.884857,55.232761,549
203.836914,-215.827332,791.366882,173.333328,24.444445,-520.000000,71.053551,296.674835,54.882744,550
215.827332,-191.846512,743.405273,184.444443,44.444443,-517.500000,69.233459,291.984589,55.302765,551
203.836914,-167.865707,635.491577,184.444443,44.444443,-510.000000,50.962547,285.894287,51.452572,552
71.942444,-215.827332,599.520386,184.444443,62.222221,-512.500000,20.091005,272.593628,44.102207,553
107.913666,-239.808136,539.568298,184.444443,68.888885,-502.500000,-14.560728,255.442780,34.511726,554
167.865707,-263.788971,503.597107,188.888885,80.000000,-505.000000,-29.681484,245.642288,29.401470,555
191.846512,-227.817734,479.616272,191.111115,88.888885,-497.500000,-55.302765,226.741333,22.331118,556
191.846512,-167.865707,455.635468,182.222229,111.111115,-495.000000,-74.483727,213.020660,20.581030,557
191.846512,-179.856110,371.702637,177.777771,108.888885,-490.000000,-87.224365,201.120056,21.911097,558
191.846512,-239.808136,263.788971,175.555557,122.222221,-490.000000,-99.404968,189.009445,22.261114,559
179.856110,-191.846512,263.788971,171.111115,124.444443,-487.500000,-109.205460,176.688843,21.981100,560
143.884888,-191.846512,263.788971,171.111115,137.777771,-487.500000,-113.685684,162.618134,21.561079,561
119.904068,-215.827332,275.779358,164.444443,137.777771,-482.500000,-110.955551,147.987396,21.841093,562
167.865707,-215.827332,335.731415,162.222229,146.666672,-485.000000,-102.765137,142.527130,24.361217,563
179.856110,-167.865707,419.664246,160.000000,151.111115,-485.000000,-90.094505,150.087509,32.551628,564
191.846512,-191.846512,503.597107,155.555557,164.444443,-480.000000,-70.913544,160.588028,44.172211,565
191.846512,-179.856110,539.568298,153.333328,164.444443,-470.000000,-52.642632,175.078751,58.452923,566
119.904068,-215.827332,647.481995,157.777771,175.555557,-472.500000,-46.552330,185.299271,64.543228,567
59.952034,-227.817734,635.491577,153.333328,180.000000,-465.000000,-38.641933,202.380127,74.203712,568
47.961628,-239.808136,503.597107,157.777771,191.111115,-465.000000,-35.351768,215.820801,80.784042,569
47.961628,-239.808136,431.654663,155.555557,193.333328,-455.000000,-37.241863,228.491425,79.313965,570
-119.904068,-191.846512,191.846512,153.333328,204.444443,-455.000000,-45.082256,237.871902,78.053902,571
-107.913666,-215.827332,155.875290,157.777771,213.333328,-445.000000,-54.112705,239.551987,77.423874,572
-119.904068,-287.769775,-95.923256,153.333328,217.777771,-435.000000,-59.012951,231.151566,76.233810,573
-143.884888,-251.798553,-167.865707,151.111115,228.888885,-430.000000,-60.413021,217.150864,74.203712,574
-191.846512,-383.693024,-311.750580,155.555557,235.555557,-425.000000,-58.452923,203.920197,71.753586,575
-239.808136,-395.683441,-299.760193,151.111115,237.777771,-415.000000,-55.022751,189.639481,68.463425,576
-359.712219,-455.635468,-383.693024,157.777771,253.333328,-415.000000,-53.272663,175.078751,62.723137,577
-359.712219,-491.606689,-395.683441,153.333328,251.111115,-407.500000,-54.252712,159.327972,54.112705,578
-263.788971,-431.654663,-455.635468,153.333328,255.555557,-407.500000,-55.302765,151.417572,41.022053,579
-191.846512,-407.673828,-491.606689,148.888885,262.222229,-402.500000,-56.142807,137.346863,35.421772,580
-167.865707,-311.750580,-527.577942,146.666672,268.888885,-402.500000,-54.462723,123.906197,28.351418,581
-95.923256,-263.788971,-515.587524,146.666672,271.111115,-392.500000,-52.012600,109.065453,24.151207,582
-23.980814,-287.769775,-455.635468,148.888885,277.777771,-392.500000,-48.162407,93.174660,22.401121,583
-47.961628,-263.788971,-383.693024,144.444443,275.555542,-387.500000,-43.542179,74.833740,17.500875,584
0.000000,-239.808136,-239.808136,142.222229,284.444458,-390.000000,-35.071754,68.533424,19.110956,585
0.000000,-227.817734,-215.827332,140.000000,277.777771,-380.000000,-22.191111,72.803642,24.781239,586
-71.942444,-215.827332,-215.827332,140.000000,284.444458,-382.500000,-9.310466,79.523979,28.631432,587
-35.971222,-191.846512,-203.836914,142.222229,282.222229,-375.000000,5.110256,86.594330,33.951698,588
0.000000,-143.884888,-47.961628,142.222229,286.666656,-377.500000,19.460974,89.674484,43.332169,589
0.000000,-167.865707,-11.990407,146.666672,286.666656,-372.500000,34.441723,94.854744,56.562828,590
23.980814,-311.750580,191.846512,151.111115,293.333344,-367.500000,42.422123,103.605179,66.573326,591
-47.961628,-179.856110,179.856110,148.888885,295.555542,-357.500000,41.022053,109.905495,68.183411,592
-143.884888,-263.788971,23.980814,151.111115,302.222229,-357.500000,28.211411,115.785789,66.083305,593
-167.865707,-203.836914,-11.990407,153.333328,297.777771,-347.500000,4.340217,109.485474,64.333214,594
-191.846512,-239.808136,-167.865707,160.000000,302.222229,-350.000000,-17.010851,99.544975,61.533077,595
-191.846512,-263.788971,-179.856110,153.333328,302.222229,-337.500000,-31.571579,87.084358,59.782990,596
-215.827332,-287.769775,-215.827332,155.555557,304.444458,-345.000000,-43.822193,77.983902,56.142807,597
-215.827332,-263.788971,-311.750580,157.777771,304.444458,-337.500000,-55.582779,72.313614,51.172558,598
-167.865707,-263.788971,-407.673828,157.777771,315.555542,-340.000000,-68.953445,64.683235,46.552330,599
-107.913666,-215.827332,-515.587524,151.111115,304.444458,-330.000000,-80.924049,55.862793,40.532028,600
0.000000,-191.846512,-647.481995,151.111115,311.111115,-332.500000,-89.604485,46.272316,38.361919,601
0.000000,-143.884888,-707.434021,148.888885,308.888885,-327.500000,-94.504723,37.801891,37.871895,602
0.000000,-95.923256,-887.290100,148.888885,313.333344,-330.000000,-97.444870,26.111305,39.831993,603
11.990407,-71.942444,-983.213379,144.444443,306.666656,-325.000000,-98.634933,18.620932,40.672035,604
-71.942444,-167.865707,-1175.059937,140.000000,315.555542,-332.500000,-100.805038,0.350018,40.882046,605
-95.923256,-167.865707,-1223.021484,137.777771,308.888885,-332.500000,-102.205109,-20.301016,38.361919,606
-95.923256,-167.865707,-1294.963989,137.777771,306.666656,-330.000000,-98.144905,-41.372070,36.891846,607
-71.942444,-179.856110,-1235.011963,135.555557,302.222229,-332.500000,-84.424225,-54.042702,37.521877,608
23.980814,-191.846512,-1175.059937,140.000000,302.222229,-340.000000,-61.603081,-58.662933,40.742039,609
35.971222,-155.875290,-1139.088623,137.777771,302.222229,-337.500000,-38.501926,-60.763039,47.112354,610
95.923256,-143.884888,-1007.194214,137.777771,302.222229,-340.000000,-18.830942,-62.933147,54.882744,611
143.884888,-119.904068,-959.232544,137.777771,293.333344,-342.500000,-2.590130,-63.983200,65.383270,612
167.865707,-71.942444,-863.309326,137.777771,300.000000,-347.500000,10.990550,-65.173256,76.443825,613
167.865707,-119.904068,-839.328491,146.666672,293.333344,-345.000000,20.371019,-67.413368,88.274414,614
167.865707,-191.846512,-671.462830,148.888885,293.333344,-345.000000,26.391319,-68.953445,99.194962,615
167.865707,-203.836914,-599.520386,151.111115,282.222229,-345.000000,26.881344,-69.303467,107.735390,616
71.942444,-239.808136,-503.597107,160.000000,286.666656,-355.000000,23.171160,-69.793488,110.325516,617
47.961628,-311.750580,-443.645050,157.777771,277.777771,-350.000000,16.590830,-71.403572,112.145607,618
0.000000,-335.731415,-455.635468,166.666672,280.000000,-355.000000,11.410571,-72.173607,114.175713,619
-35.971222,-359.712219,-491.606689,168.888885,271.111115,-355.000000,6.510325,-72.453621,115.225761,620
-191.846512,-431.654663,-383.693024,171.111115,275.555542,-360.000000,-1.750087,-75.183762,116.905846,621
-167.865707,-491.606689,-371.702637,175.555557,262.222229,-357.500000,-4.690235,-77.773888,117.185860,622
-167.865707,-575.539551,-359.712219,180.000000,266.666656,-360.000000,-2.730137,-76.093803,116.835846,623
-203.836914,-527.577942,-371.702637,184.444443,260.000000,-362.500000,-2.450123,-77.213860,114.595734,624
-287.769775,-527.577942,-407.673828,186.666672,260.000000,-370.000000,-1.960098,-80.714035,114.455727,625
-263.788971,-455.635468,-347.721802,188.888885,244.444443,-367.500000,-10.570529,-82.814140,105.985298,626
-359.712219,-383.693024,-503.597107,193.333328,251.111115,-377.500000,-14.140707,-85.824295,104.025200,627
-275.779358,-539.568298,-479.616272,191.111115,242.222229,-370.000000,-14.980749,-101.505074,104.865242,628
-311.750580,-551.558716,-263.788971,197.777771,244.444443,-377.500000,-16.660833,-106.895348,100.945045,629
-311.750580,-527.577942,-203.836914,197.777771,233.333328,-377.500000,-1.890095,-105.495277,109.555481,630
-455.635468,-671.462830,0.000000,204.444443,235.555557,-380.000000,22.681135,-96.044800,128.526428,631
-503.597107,-815.347656,191.846512,208.888885,231.111115,-382.500000,46.132309,-78.473923,149.317474,632
-575.539551,-983.213379,407.673828,217.777771,226.666672,-385.000000,52.712635,-70.213509,150.717545,633
-635.491577,-995.203796,527.577942,222.222229,213.333328,-382.500000,45.782291,-63.423172,145.047256,634
-623.501160,-1079.136597,599.520386,233.333328,217.777771,-385.000000,34.861744,-53.622681,145.117264,635
-563.549133,-1091.127075,671.462830,233.333328,206.666672,-380.000000,21.701086,-44.662235,145.117264,636
-575.539551,-1031.175049,743.405273,240.000000,215.555557,-390.000000,6.230311,-34.161709,140.357025,637
-563.549133,-1043.165405,719.424438,242.222229,202.222229,-385.000000,-11.480575,-26.461323,133.356674,638
-455.635468,-1079.136597,647.481995,248.888885,208.888885,-385.000000,-28.841442,-20.651033,124.956245,639
-431.654663,-1019.184631,587.529968,248.888885,204.444443,-390.000000,-46.482327,-17.010851,115.085754,640
-383.693024,-935.251770,359.712219,248.888885,204.444443,-387.500000,-52.922646,-10.990550,112.355621,641
-275.779358,-887.290100,251.798553,251.111115,197.777771,-382.500000,-59.922997,-0.210010,108.575432,642
-215.827332,-767.386047,71.942444,257.777771,200.000000,-390.000000,-59.922997,5.040252,110.605530,643
-191.846512,-743.405273,-35.971222,255.555557,195.555557,-382.500000,-56.072803,4.550228,119.355972,644
-215.827332,-743.405273,-23.980814,257.777771,200.000000,-390.000000,-50.192509,-2.520126,126.706337,645
-215.827332,-767.386047,35.971222,262.222229,193.333328,-387.500000,-42.352119,-11.690584,132.446625,646
-239.808136,-815.347656,215.827332,271.111115,197.777771,-392.500000,-29.821491,-16.310816,137.906891,647
-287.769775,-815.347656,347.721802,273.333344,195.555557,-387.500000,-19.320967,-15.330767,142.107101,648
-383.693024,-983.213379,599.520386,273.333344,186.666672,-390.000000,-10.010501,-11.830591,146.377319,649
-419.664246,-995.203796,743.405273,284.444458,182.222229,-385.000000,-2.100105,-4.060203,149.947495,650
-551.558716,-983.213379,911.270935,284.444458,184.444443,-387.500000,7.490375,6.580329,153.447678,651
-575.539551,-1019.184631,1091.127075,293.333344,182.222229,-385.000000,12.460623,19.320967,161.708084,652
-623.501160,-1247.002319,1582.733765,302.222229,184.444443,-387.500000,12.530626,28.421421,168.988449,653
-635.491577,-1330.935181,1750.599487,302.222229,173.333328,-377.500000,8.190410,51.872593,171.018555,654
-551.558716,-1294.963989,1678.656982,311.111115,180.000000,-390.000000,-1.260063,82.884148,171.438568,655
-503.597107,-1282.973511,1498.800903,317.777771,171.111115,-377.500000,-11.690584,113.615685,169.058456,656
-455.635468,-1175.059937,983.213379,322.222229,180.000000,-375.000000,-20.581030,134.266708,166.258316,657
-491.606689,-1175.059937,791.366882,331.111115,177.777771,-377.500000,-31.921597,142.527130,163.948196,658
-575.539551,-1151.079102,335.731415,337.777771,182.222229,-372.500000,-49.632481,139.026947,162.828140,659
-551.558716,-1175.059937,251.798553,337.777771,175.555557,-362.500000,-72.803642,124.326218,163.528183,660
-551.558716,-1223.021484,215.827332,346.666656,182.222229,-370.000000,-90.934547,105.845291,165.208267,661
-563.549133,-1306.954346,215.827332,344.444458,171.111115,-365.000000,-97.724884,91.144562,166.398315,662
-575.539551,-1342.925659,311.750580,351.111115,180.000000,-370.000000,-97.864891,82.674133,163.318161,663
-635.491577,-1390.887207,383.693024,348.888885,171.111115,-365.000000,-95.694786,80.294014,157.647888,664
-695.443604,-1390.887207,407.673828,353.333344,171.111115,-375.000000,-91.774590,85.894295,153.447678,665
-695.443604,-1438.848877,383.693024,357.777771,171.111115,-370.000000,-89.464478,89.394470,151.557587,666
-743.405273,-1462.829712,239.808136,364.444458,168.888885,-372.500000,-83.444176,92.264618,148.547424,667
-767.386047,-1462.829712,191.846512,362.222229,162.222229,-372.500000,-75.813789,88.974449,147.777390,668
-815.347656,-1462.829712,119.904068,368.888885,164.444443,-375.000000,-74.973747,77.913895,143.577179,669
-827.338074,-1522.781738,119.904068,364.444458,153.333328,-372.500000,-80.784042,63.773190,138.326920,670
-1007.194214,-1606.714600,119.904068,368.888885,160.000000,-377.500000,-88.414421,48.582428,132.796646,671
-1007.194214,-1678.656982,143.884888,364.444458,148.888885,-377.500000,-98.564926,32.761639,122.786140,672
-1199.040771,-1894.484375,311.750580,368.888885,151.111115,-385.000000,-109.065453,12.460623,113.615685,673
-1199.040771,-1942.445923,515.587524,371.111115,146.666672,-382.500000,-120.126007,-6.860343,104.095207,674
-1199.040771,-2038.369263,815.347656,366.666656,144.444443,-390.000000,-127.056351,-18.550928,95.484772,675
-1139.088623,-2086.330811,1043.165405,362.222229,133.333328,-395.000000,-124.046204,-13.510675,89.604485,676
-959.232544,-2062.350098,1486.810547,364.444458,137.777771,-397.500000,-110.535530,15.470774,89.114456,677
-947.242188,-2038.369263,1486.810547,360.000000,128.888885,-392.500000,-103.605179,33.461674,90.094505,678
-983.213379,-2014.388428,1390.887207,360.000000,135.555557,-400.000000,-98.354919,67.343369,92.684639,679
-1067.146240,-2062.350098,1306.954346,353.333344,122.222221,-395.000000,-107.735390,89.254463,93.384666,680
-1318.944824,-2110.311768,1031.175049,355.555542,133.333328,-402.500000,-133.986694,94.714737,88.624435,681
-1378.896851,-2158.273193,947.242188,351.111115,128.888885,-395.000000,-168.988449,89.954498,78.613930,682
-1654.676147,-2254.196533,743.405273,346.666656,131.111115,-397.500000,-205.110260,79.873993,64.053200,683
-1786.570679,-2362.110107,611.510742,328.888885,124.444443,-402.500000,-239.621979,65.593277,42.702137,684
-2038.369263,-2470.023926,503.597107,324.444458,131.111115,-410.000000,-268.883453,46.972347,17.500875,685
-2074.340332,-2446.042969,419.664246,315.555542,124.444443,-407.500000,-286.454315,32.271614,-4.900245,686
-2086.330811,-2446.042969,287.769775,306.666656,133.333328,-417.500000,-291.774597,24.991249,-22.191111,687
-1990.407593,-2398.081543,167.865707,293.333344,128.888885,-415.000000,-285.754303,21.771090,-31.081554,688
-1798.561035,-2038.369263,143.884888,288.888885,137.777771,-422.500000,-265.663300,20.301016,-32.481625,689
-1750.599487,-2014.388428,71.942444,282.222229,128.888885,-420.000000,-254.042709,21.771090,-31.361568,690
-1750.599487,-2086.330811,0.000000,273.333344,133.333328,-427.500000,-233.111664,16.800840,-30.031502,691
-1834.532349,-2038.369263,-71.942444,268.888885,133.333328,-430.000000,-216.030807,11.970598,-32.061604,692
-1942.445923,-2038.369263,-47.961628,257.777771,135.555557,-437.500000,-204.480225,6.440322,-38.711937,693
-1942.445923,-2014.388428,-119.904068,246.666672,133.333328,-432.500000,-198.179916,1.400070,-50.962547,694
-1966.426758,-1918.465088,-167.865707,240.000000,142.222229,-442.500000,-195.799789,-6.930346,-65.663284,695
-1978.417236,-1846.522705,-179.856110,233.333328,137.777771,-440.000000,-193.349670,-16.240812,-80.924049,696
-2062.350098,-1774.580200,23.980814,226.666672,144.444443,-442.500000,-191.249557,-24.221210,-88.134407,697
-2050.359619,-1750.599487,71.942444,215.555557,140.000000,-437.500000,-194.329712,-13.720686,-92.754639,698
-2062.350098,-1822.541870,95.923256,211.111115,144.444443,-450.000000,-212.320618,-11.270564,-102.415123,699
-2038.369263,-1822.541870,143.884888,200.000000,144.444443,-452.500000,-238.851944,-23.451172,-116.765839,700
-1942.445923,-1750.599487,95.923256,184.444443,148.888885,-460.000000,-267.903412,-34.511726,-134.686737,701
-1894.484375,-1558.752930,0.000000,164.444443,146.666672,-462.500000,-296.674835,-38.011902,-153.167664,702
-1822.541870,-1498.800903,-35.971222,151.111115,153.333328,-470.000000,-310.535522,-42.772141,-161.778091,703
-1702.637817,-1462.829712,-239.808136,133.333328,151.111115,-470.000000,-332.376617,-43.262165,-177.038849,704
-1642.685791,-1342.925659,-263.788971,120.000000,153.333328,-477.500000,-343.157166,-40.882046,-188.449417,705
-1510.791260,-1247.002319,-503.597107,100.000000,151.111115,-477.500000,-343.927185,-38.711937,-196.429825,706
-1474.820068,-1211.031128,-563.549133,80.000000,153.333328,-482.500000,-339.306976,-37.941898,-201.470078,707
-1294.963989,-1079.136597,-671.462830,64.444443,153.333328,-482.500000,-329.646484,-38.291916,-204.060211,708
-1199.040771,-1019.184631,-707.434021,42.222221,153.333328,-485.000000,-316.205811,-39.201962,-202.450119,709
-983.213379,-911.270935,-719.424438,15.555555,140.000000,-482.500000,-297.724884,-39.481976,-196.289810,710
-971.222961,-911.270935,-695.443604,0.000000,151.111115,-485.000000,-275.463776,-41.022053,-189.079453,711
-959.232544,-863.309326,-599.520386,-15.555555,137.777771,-482.500000,-251.872589,-45.642284,-180.959045,712
-899.280518,-875.299744,-539.568298,-24.444445,144.444443,-487.500000,-234.371719,-51.242561,-175.218765,713
-911.270935,-911.270935,-383.693024,-42.222221,137.777771,-485.000000,-222.891144,-55.022751,-170.738541,714
-899.280518,-923.261353,-347.721802,-48.888889,137.777771,-487.500000,-218.830948,-54.742737,-168.918442,715
-863.309326,-863.309326,-287.769775,-68.888885,133.333328,-482.500000,-211.270569,-53.762688,-168.358414,716
-863.309326,-863.309326,-287.769775,-75.555557,133.333328,-485.000000,-203.710190,-52.362617,-170.178513,717
-767.386047,-815.347656,-287.769775,-100.000000,120.000000,-480.000000,-198.739944,-56.912846,-175.708786,718
-779.376465,-731.414856,-287.769775,-111.111115,122.222221,-485.000000,-199.439972,-60.973049,-179.488983,719
-767.386047,-647.481995,-383.693024,-124.444443,111.111115,-477.500000,-206.300323,-64.053200,-183.059158,720
-743.405273,-623.501160,-335.731415,-137.777771,108.888885,-482.500000,-215.400772,-69.443474,-186.209320,721
-743.405273,-551.558716,-383.693024,-153.333328,100.000000,-472.500000,-221.981094,-78.543930,-188.869446,722
-695.443604,-563.549133,-395.683441,-155.555557,100.000000,-477.500000,-222.961151,-87.294365,-190.969543,723
-551.558716,-527.577942,-383.693024,-173.333328,86.666664,-467.500000,-219.670990,-95.974800,-191.809586,724
-551.558716,-491.606689,-323.740997,-182.222229,88.888885,-470.000000,-210.990555,-102.905144,-192.649628,725
-527.577942,-479.616272,-263.788971,-195.555557,66.666664,-470.000000,-199.929993,-106.825340,-195.239761,726
-467.625885,-455.635468,-239.808136,-220.000000,62.222221,-462.500000,-196.639832,-108.785439,-198.809937,727
-479.616272,-407.673828,-239.808136,-231.111115,44.444443,-457.500000,-191.389572,-111.445572,-200.560028,728
-395.683441,-311.750580,-215.827332,-235.555557,48.888889,-457.500000,-185.229263,-112.775642,-201.190063,729
-191.846512,-311.750580,-215.827332,-251.111115,31.111111,-455.000000,-174.798737,-104.445221,-196.219818,730
-263.788971,-299.760193,-119.904068,-255.555557,33.333332,-457.500000,-158.907944,-105.005249,-187.889389,731
-191.846512,-239.808136,23.980814,-266.666656,15.555555,-447.500000,-138.676941,-100.735039,-182.219116,732
-203.836914,-239.808136,0.000000,-271.111115,15.555555,-447.500000,-115.295769,-84.214211,-174.518723,733
-239.808136,-191.846512,23.980814,-280.000000,6.666667,-445.000000,-93.594681,-68.743439,-165.628281,734
-227.817734,-215.827332,23.980814,-286.666656,-6.666667,-445.000000,-77.563881,-56.912846,-157.157852,735
-287.769775,-287.769775,-47.961628,-293.333344,-17.777779,-435.000000,-68.043404,-49.212460,-150.927551,736
-323.740997,-263.788971,23.980814,-293.333344,-15.555555,-440.000000,-63.983200,-38.921947,-144.627228,737
-383.693024,-311.750580,23.980814,-300.000000,-28.888889,-432.500000,-61.673084,-36.401821,-141.827087,738
-407.673828,-359.712219,23.980814,-297.777771,-33.333332,-435.000000,-65.663284,-38.571930,-142.667130,739
-479.616272,-359.712219,-23.980814,-308.888885,-42.222221,-427.500000,-69.933495,-46.272316,-144.977249,740
-491.606689,-395.683441,23.980814,-311.111115,-40.000000,-432.500000,-80.784042,-56.282814,-151.767593,741
-503.597107,-455.635468,23.980814,-320.000000,-48.888889,-427.500000,-91.634583,-65.383270,-159.537979,742
-491.606689,-431.654663,71.942444,-322.222229,-60.000000,-430.000000,-96.884842,-72.103607,-167.378372,743
-503.597107,-359.712219,191.846512,-333.333344,-73.333336,-420.000000,-98.564926,-73.713684,-173.048660,744
-479.616272,-383.693024,167.865707,-333.333344,-82.222221,-422.500000,-96.394821,-71.053551,-177.458878,745
-455.635468,-383.693024,215.827332,-340.000000,-91.111115,-417.500000,-90.514526,-65.313263,-181.729095,746
-479.616272,-527.577942,251.798553,-342.222229,-95.555557,-417.500000,-81.764091,-59.012951,-184.389221,747
-407.673828,-407.673828,239.808136,-346.666656,-111.111115,-407.500000,-72.173607,-52.502625,-187.189362,748
-431.654663,-383.693024,227.817734,-346.666656,-111.111115,-410.000000,-62.233112,-46.412323,-188.519424,749
-431.654663,-311.750580,191.846512,-353.333344,-120.000000,-405.000000,-55.442772,-40.602032,-190.199509,750
-383.693024,-287.769775,215.827332,-353.333344,-133.333328,-407.500000,-51.242561,-38.081905,-190.269516,751
-263.788971,-215.827332,143.884888,-357.777771,-148.888885,-402.500000,-49.632481,-37.241863,-191.039551,752
-215.827332,-191.846512,143.884888,-360.000000,-151.111115,-405.000000,-47.322365,-36.191811,-189.849487,753
-191.846512,-167.865707,23.980814,-362.222229,-168.888885,-395.000000,-46.902344,-36.471825,-188.099411,754
-167.865707,-179.856110,71.942444,-357.777771,-166.666672,-402.500000,-45.432274,-38.011902,-185.579285,755
-167.865707,-191.846512,167.865707,-364.444458,-180.000000,-395.000000,-42.212112,-38.501926,-183.339172,756
-155.875290,-179.856110,155.875290,-362.222229,-182.222229,-397.500000,-36.331818,-39.691986,-182.569138,757
-95.923256,-143.884888,119.904068,-366.666656,-197.777771,-392.500000,-28.281414,-41.022053,-179.278961,758
-131.894485,-167.865707,119.904068,-362.222229,-204.444443,-395.000000,-19.040953,-42.212112,-176.688843,759
-167.865707,-119.904068,71.942444,-366.666656,-224.444443,-395.000000,-11.690584,-45.852295,-175.358765,760
-227.817734,-155.875290,47.961628,-353.333344,-222.222229,-395.000000,-7.980399,-50.612530,-175.708786,761
-215.827332,-167.865707,47.961628,-360.000000,-242.222229,-390.000000,-5.320266,-58.032902,-176.828842,762
-203.836914,-191.846512,59.952034,-357.777771,-237.777771,-390.000000,-6.650332,-66.503326,-181.309067,763
-191.846512,-167.865707,23.980814,-355.555542,-253.333328,-395.000000,-7.490375,-68.883446,-191.879593,764
-191.846512,-143.884888,35.971222,-353.333344,-257.777771,-395.000000,-9.940497,-70.493523,-197.689880,765
-191.846512,-47.961628,-23.980814,-351.111115,-275.555542,-390.000000,-12.600630,-72.313614,-207.980408,766
-179.856110,-23.980814,-47.961628,-348.888885,-282.222229,-395.000000,-17.080854,-76.723839,-216.240814,767
-167.865707,0.000000,-23.980814,-346.666656,-291.111115,-392.500000,-21.351068,-84.774239,-222.051102,768
-119.904068,23.980814,-11.990407,-337.777771,-308.888885,-382.500000,-21.281065,-95.414772,-223.871201,769
0.000000,143.884888,143.884888,-335.555542,-326.666656,-375.000000,-17.710886,-103.325165,-224.501221,770
11.990407,119.904068,167.865707,-333.333344,-333.333344,-385.000000,-9.730487,-104.165207,-222.541122,771
119.904068,167.865707,215.827332,-333.333344,-346.666656,-375.000000,0.770038,-97.374870,-220.020996,772
143.884888,167.865707,251.798553,-324.444458,-353.333344,-380.000000,13.160658,-87.574379,-218.550934,773
191.846512,215.827332,311.750580,-322.222229,-364.444458,-375.000000,23.731186,-79.103958,-213.160660,774
191.846512,227.817734,287.769775,-313.333344,-366.666656,-377.500000,30.241512,-71.823593,-207.840393,775
239.808136,191.846512,311.750580,-311.111115,-380.000000,-377.500000,34.721737,-68.253410,-203.780197,776
239.808136,191.846512,287.769775,-302.222229,-388.888885,-377.500000,37.101856,-63.283165,-202.660141,777
215.827332,215.827332,239.808136,-291.111115,-400.000000,-375.000000,39.691986,-59.852993,-202.100113,778
239.808136,215.827332,239.808136,-280.000000,-404.444458,-380.000000,43.962200,-57.472874,-201.960098,779
239.808136,215.827332,191.846512,-280.000000,-420.000000,-375.000000,47.602379,-55.092754,-203.080154,780
263.788971,239.808136,155.875290,-271.111115,-420.000000,-380.000000,47.882393,-54.742737,-205.810287,781
239.808136,311.750580,143.884888,-262.222229,-431.111115,-370.000000,46.272316,-57.542877,-206.300323,782
263.788971,275.779358,131.894485,-251.111115,-431.111115,-377.500000,44.732239,-60.413021,-208.190414,783
239.808136,287.769775,23.980814,-248.888885,-440.000000,-370.000000,42.702137,-63.423172,-211.970596,784
287.769775,275.779358,35.971222,-237.777771,-446.666656,-375.000000,40.252014,-66.643333,-216.940857,785
311.750580,359.712219,23.980814,-231.111115,-464.444458,-372.500000,38.291916,-67.203362,-222.401123,786
359.712219,395.683441,0.000000,-217.777771,-464.444458,-375.000000,35.351768,-67.133354,-226.531326,787
359.712219,431.654663,-143.884888,-213.333328,-477.777771,-365.000000,31.921597,-69.933495,-229.121460,788
359.712219,419.664246,-95.923256,-200.000000,-477.777771,-370.000000,30.941547,-73.573677,-231.081558,789
335.731415,455.635468,-167.865707,-193.333328,-491.111115,-360.000000,28.351418,-84.144211,-233.881699,790
335.731415,467.625885,-179.856110,-184.444443,-488.888885,-362.500000,27.721386,-95.344765,-236.961853,791
383.693024,551.558716,-95.923256,-177.777771,-502.222229,-355.000000,29.821491,-106.335320,-239.761993,792
419.664246,587.529968,-47.961628,-168.888885,-508.888885,-355.000000,32.551628,-115.155762,-240.742035,793
455.635468,599.520386,71.942444,-157.777771,-524.444458,-340.000000,34.161709,-124.186211,-242.772141,794
491.606689,587.529968,95.923256,-142.222229,-524.444458,-342.500000,34.581730,-130.626526,-245.992310,795
551.558716,599.520386,191.846512,-137.777771,-535.555542,-337.500000,35.631783,-133.986694,-248.652435,796
527.577942,599.520386,191.846512,-120.000000,-537.777771,-337.500000,42.842144,-130.836548,-248.652435,797
359.712219,527.577942,383.693024,-113.333336,-548.888916,-330.000000,73.713684,-109.205460,-249.352463,798
443.645050,551.558716,311.750580,-102.222221,-548.888916,-332.500000,94.294716,-96.674835,-245.572281,799
407.673828,599.520386,311.750580,-97.777779,-560.000000,-322.500000,111.935600,-85.684288,-239.761993,800
407.673828,575.539551,347.721802,-82.222221,-560.000000,-327.500000,117.955902,-82.604134,-232.481628,801
383.693024,599.520386,359.712219,-71.111115,-562.222229,-322.500000,124.956245,-72.243614,-230.101501,802
383.693024,599.520386,443.645050,-48.888889,-564.444458,-322.500000,122.086105,-63.073154,-226.881348,803
335.731415,719.424438,407.673828,-42.222221,-571.111084,-315.000000,115.365768,-56.352818,-225.761292,804
263.788971,671.462830,407.673828,-28.888889,-566.666687,-315.000000,109.765488,-52.292614,-225.131256,805
143.884888,743.405273,287.769775,-17.777779,-573.333313,-312.500000,110.325516,-45.362270,-227.161362,806
167.865707,731.414856,299.760193,-6.666667,-573.333313,-315.000000,114.525726,-40.672035,-230.381516,807
167.865707,791.366882,287.769775,2.222222,-577.777771,-307.500000,114.665733,-44.032204,-234.581726,808
203.836914,815.347656,347.721802,15.555555,-573.333313,-312.500000,110.605530,-53.552677,-237.241867,809
191.846512,863.309326,527.577942,24.444445,-577.777771,-305.000000,106.405319,-62.443123,-237.661880,810
203.836914,899.280518,659.472412,35.555557,-575.555542,-300.000000,103.395172,-67.063354,-236.121811,811
335.731415,887.290100,1079.136597,53.333332,-584.444458,-295.000000,102.415123,-67.483376,-233.881699,812
335.731415,911.270935,1067.146240,68.888885,-575.555542,-295.000000,100.665031,-66.293312,-232.971649,813
383.693024,1007.194214,1199.040771,75.555557,-584.444458,-290.000000,99.054955,-57.822891,-233.111664,814
503.597107,1019.184631,1282.973511,86.666664,-577.777771,-292.500000,98.284912,-42.212112,-231.081558,815
575.539551,1127.098267,1366.906372,95.555557,-586.666687,-282.500000,99.544975,-23.381168,-223.451172,816
731.414856,959.232544,1414.868042,106.666664,-577.777771,-280.000000,104.655235,-2.310116,-211.270569,817
575.539551,1366.906372,1055.155884,115.555557,-577.777771,-280.000000,114.175713,23.731186,-200.840042,818
599.520386,1211.031128,1175.059937,124.444443,-573.333313,-282.500000,115.575783,43.892197,-186.419327,819
311.750580,1294.963989,1390.887207,137.777771,-571.111084,-277.500000,115.575783,32.621632,-174.938751,820
443.645050,1402.877686,1175.059937,153.333328,-571.111084,-282.500000,117.955902,36.681835,-167.238358,821
527.577942,1294.963989,1175.059937,157.777771,-571.111084,-277.500000,105.355270,49.772488,-164.298218,822
407.673828,1306.954346,1223.021484,168.888885,-562.222229,-282.500000,94.364716,55.162758,-161.218063,823
383.693024,1342.925659,1175.059937,168.888885,-564.444458,-277.500000,86.174309,53.972698,-162.688141,824
395.683441,1318.944824,1270.983154,182.222229,-560.000000,-280.000000,83.304169,45.922298,-159.957993,825
359.712219,1247.002319,1534.772095,186.666672,-562.222229,-277.500000,81.764091,44.522228,-157.577881,826
371.702637,1211.031128,1642.685791,195.555557,-562.222229,-277.500000,74.973747,43.752190,-152.887650,827
383.693024,1247.002319,1822.541870,200.000000,-555.555542,-272.500000,62.583130,44.942249,-146.727341,828
419.664246,1318.944824,1870.503540,215.555557,-551.111084,-282.500000,48.232410,50.262512,-142.737137,829
503.597107,1390.887207,1822.541870,217.777771,-551.111084,-280.000000,39.761990,64.193207,-138.466919,830
515.587524,1426.858398,1858.513062,224.444443,-544.444458,-282.500000,36.611832,81.764091,-132.306610,831
551.558716,1486.810547,1798.561035,228.888885,-548.888916,-280.000000,34.721737,96.464821,-124.886246,832
539.568298,1570.743286,1786.570679,233.333328,-540.000000,-290.000000,32.621632,106.125305,-114.455727,833
527.577942,1558.752930,1750.599487,235.555557,-542.222229,-285.000000,34.161709,115.645782,-102.695137,834
491.606689,1606.714600,1810.551514,242.222229,-531.111084,-295.000000,35.701786,126.216309,-91.704590,835
407.673828,1582.733765,2038.369263,248.888885,-526.666687,-297.500000,35.701786,139.096954,-85.544281,836
335.731415,1546.762573,2062.350098,255.555557,-520.000000,-302.500000,26.741337,145.817291,-83.444176,837
239.808136,1558.752930,2254.196533,253.333328,-522.222229,-305.000000,19.320967,148.967453,-80.224014,838
275.779358,1594.724121,2302.158203,264.444458,-513.333313,-312.500000,3.080154,159.187958,-79.033951,839
335.731415,1534.772095,2350.119873,262.222229,-515.555542,-317.500000,-9.240462,176.758835,-74.973747,840
359.712219,1666.666626,2410.071777,268.888885,-504.444458,-327.500000,-13.790689,199.299973,-69.233459,841
455.635468,1702.637817,2446.042969,268.888885,-502.222229,-327.500000,-8.540427,233.321671,-60.833042,842
467.625885,1654.676147,2422.062256,271.111115,-493.333344,-337.500000,-0.770038,263.633179,-49.772488,843
455.635468,1774.580200,2374.100586,275.555542,-486.666656,-347.500000,3.360168,290.094513,-39.901997,844
539.568298,1750.599487,2242.206055,273.333344,-468.888885,-367.500000,7.630382,314.945740,-28.841442,845
575.539551,1678.656982,2038.369263,277.777771,-466.666656,-375.000000,13.160658,333.846710,-19.460974,846
575.539551,1702.637817,1990.407593,284.444458,-448.888885,-382.500000,25.621281,346.937347,-9.800490,847
479.616272,1534.772095,1822.541870,282.222229,-446.666656,-390.000000,38.011902,353.727692,0.560028,848
467.625885,1510.791260,1822.541870,284.444458,-431.111115,-400.000000,38.431923,351.977600,9.310466,849
383.693024,1414.868042,1678.656982,280.000000,-431.111115,-405.000000,27.861393,348.687439,15.050753,850
347.721802,1378.896851,1762.589844,288.888885,-411.111115,-420.000000,19.320967,340.777039,16.940847,851
143.884888,1918.465088,1582.733765,288.888885,-402.222229,-420.000000,2.590130,332.516632,19.320967,852
251.798553,1390.887207,1654.676147,286.666656,-393.333344,-430.000000,-12.880644,331.956604,23.661182,853
311.750580,1079.136597,1726.618652,284.444458,-375.555542,-447.500000,-28.281414,326.426331,28.001400,854
251.798553,1115.107910,1738.609009,288.888885,-357.777771,-455.000000,-40.252014,324.396210,32.761639,855
191.846512,935.251770,1846.522705,280.000000,-357.777771,-460.000000,-54.812740,324.956238,30.941547,856
167.865707,935.251770,1846.522705,280.000000,-340.000000,-470.000000,-69.863495,322.156097,28.631432,857
47.961628,911.270935,1918.465088,275.555542,-331.111115,-472.500000,-78.613930,323.066162,25.761288,858
59.952034,851.318909,1858.513062,275.555542,-311.111115,-482.500000,-75.603783,337.136871,24.081203,859
47.961628,767.386047,1894.484375,271.111115,-308.888885,-485.000000,-66.013298,354.007690,21.911097,860
23.980814,911.270935,1810.551514,271.111115,-293.333344,-495.000000,-48.582428,376.898834,20.651033,861
71.942444,1031.175049,1462.829712,271.111115,-260.000000,-505.000000,-33.741688,397.619873,26.321316,862
23.980814,1019.184631,1342.925659,273.333344,-240.000000,-510.000000,-29.961498,406.160309,31.151558,863
0.000000,935.251770,1079.136597,262.222229,-231.111115,-510.000000,-24.851242,413.370667,44.592232,864
-47.961628,863.309326,1055.155884,266.666656,-208.888885,-520.000000,-22.471125,398.529938,52.922646,865
-47.961628,695.443604,983.213379,262.222229,-206.666672,-517.500000,-25.621281,368.638428,61.883095,866
-47.961628,683.453186,971.222961,266.666656,-184.444443,-520.000000,-33.601681,326.846344,68.323418,867
-23.980814,575.539551,959.232544,260.000000,-180.000000,-522.500000,-43.682186,288.904449,70.423523,868
-59.952034,563.549133,923.261353,257.777771,-166.666672,-527.500000,-52.152607,269.233459,73.083656,869
-47.961628,551.558716,767.386047,257.777771,-166.666672,-527.500000,-60.343018,262.233124,81.274063,870
-35.971222,431.654663,779.376465,255.555557,-135.555557,-532.500000,-71.753586,254.532730,86.664337,871
-71.942444,503.597107,647.481995,246.666672,-131.111115,-527.500000,-83.794189,247.742386,80.714035,872
-71.942444,383.693024,695.443604,246.666672,-120.000000,-535.000000,-89.744492,237.451874,87.364372,873
-47.961628,215.827332,767.386047,235.555557,-115.555557,-530.000000,-94.154709,225.201263,88.344421,874
-47.961628,191.846512,887.290100,240.000000,-104.444443,-532.500000,-96.464821,220.651031,85.124260,875
-47.961628,167.865707,1055.155884,235.555557,-100.000000,-532.500000,-102.345116,211.900604,80.784042,876
-11.990407,203.836914,1067.146240,231.111115,-84.444443,-537.500000,-111.095558,206.720337,72.803642,877
0.000000,215.827332,1031.175049,228.888885,-84.444443,-537.500000,-120.896049,206.650330,65.733284,878
23.980814,215.827332,971.222961,220.000000,-62.222221,-542.500000,-129.436478,210.010498,60.903046,879
119.904068,239.808136,887.290100,213.333328,-57.777779,-537.500000,-136.436829,214.210709,57.822891,880
95.923256,263.788971,827.338074,211.111115,-46.666668,-542.500000,-142.037109,214.350723,53.832691,881
0.000000,287.769775,671.462830,200.000000,-42.222221,-540.000000,-153.797699,219.880997,49.842491,882
11.990407,239.808136,635.491577,195.555557,-28.888889,-542.500000,-165.138260,231.991608,51.452572,883
-23.980814,47.961628,575.539551,193.333328,-22.222221,-537.500000,-167.518372,229.891495,55.582779,884
-83.932854,0.000000,503.597107,188.888885,-6.666667,-545.000000,-163.528183,221.421066,53.272663,885
-167.865707,-47.961628,287.769775,180.000000,-4.444445,-540.000000,-158.207916,212.390625,48.932446,886
-203.836914,-23.980814,239.808136,171.111115,6.666667,-545.000000,-155.057755,206.860352,46.132309,887
-215.827332,-119.904068,167.865707,160.000000,15.555555,-540.000000,-152.467621,195.309769,47.252361,888
-215.827332,-143.884888,191.846512,157.777771,31.111111,-545.000000,-144.557236,184.039200,53.062653,889
-167.865707,-191.846512,191.846512,151.111115,28.888889,-535.000000,-134.406723,170.878540,60.903046,890
-179.856110,-179.856110,179.856110,148.888885,44.444443,-537.500000,-123.626183,157.297867,66.643333,891
-95.923256,-215.827332,191.846512,142.222229,40.000000,-535.000000,-113.475677,147.847397,66.643333,892
-71.942444,-215.827332,203.836914,144.444443,51.111111,-537.500000,-98.984947,141.197067,64.193207,893
-95.923256,-335.731415,311.750580,137.777771,53.333332,-535.000000,-82.114105,135.456772,63.283165,894
-107.913666,-371.702637,383.693024,133.333328,62.222221,-535.000000,-72.243614,128.316422,61.183060,895
-47.961628,-287.769775,479.616272,135.555557,66.666664,-527.500000,-61.393070,135.176758,60.273014,896
-23.980814,-323.740997,527.577942,133.333328,84.444443,-525.000000,-57.262863,143.647186,60.903046,897
47.961628,-239.808136,407.673828,128.888885,75.555557,-522.500000,-57.682884,148.197418,63.493176,898
71.942444,-215.827332,323.740997,133.333328,91.111115,-522.500000,-60.133007,149.177460,68.883446,899
71.942444,-287.769775,191.846512,122.222221,93.333336,-517.500000,-60.693035,148.547424,72.033600,900
83.932854,-251.798553,203.836914,126.666664,102.222221,-525.000000,-64.753235,144.207214,74.693733,901
23.980814,-263.788971,95.923256,122.222221,104.444443,-515.000000,-70.003502,134.826736,73.783691,902
0.000000,-263.788971,59.952034,120.000000,113.333336,-517.500000,-76.793839,123.276169,74.903748,903
-143.884888,-335.731415,23.980814,120.000000,115.555557,-512.500000,-83.094154,112.355621,74.973747,904
-167.865707,-359.712219,-11.990407,115.555557,124.444443,-512.500000,-90.304520,101.575081,72.593628,905
-167.865707,-479.616272,-47.961628,111.111115,120.000000,-510.000000,-96.534828,90.374519,66.643333,906
-167.865707,-443.645050,-71.942444,111.111115,131.111115,-512.500000,-99.614983,80.994049,62.023102,907
-215.827332,-407.673828,-143.884888,104.444443,126.666664,-507.500000,-97.164856,72.243614,59.222961,908
-179.856110,-419.664246,-191.846512,104.444443,137.777771,-507.500000,-93.804688,64.053200,58.802940,909
-215.827332,-383.693024,-287.769775,102.222221,128.888885,-500.000000,-91.284569,54.812740,58.102905,910
-179.856110,-395.683441,-371.702637,100.000000,140.000000,-510.000000,-89.534477,44.592232,56.422821,911
-191.846512,-383.693024,-503.597107,95.555557,140.000000,-505.000000,-87.784393,38.011902,54.672733,912
-155.875290,-395.683441,-539.568298,93.333336,142.222229,-510.000000,-82.534126,21.911097,53.482674,913
-167.865707,-455.635468,-527.577942,88.888885,140.000000,-502.500000,-74.063705,3.780189,50.402519,914
-143.884888,-479.616272,-563.549133,88.888885,142.222229,-502.500000,-62.443123,-12.740637,47.602379,915
-191.846512,-407.673828,-527.577942,84.444443,135.555557,-500.000000,-50.752537,-28.141407,44.242214,916
-179.856110,-467.625885,-575.539551,86.666664,142.222229,-510.000000,-41.582081,-41.792091,40.812042,917
-167.865707,-503.597107,-431.654663,84.444443,133.333328,-502.500000,-33.671684,-52.922646,36.331818,918
-167.865707,-503.597107,-443.645050,84.444443,137.777771,-512.500000,-23.941196,-60.833042,32.271614,919
-143.884888,-455.635468,-503.597107,84.444443,131.111115,-510.000000,-13.930696,-63.773190,28.281414,920
-131.894485,-467.625885,-407.673828,84.444443,131.111115,-510.000000,-7.560378,-71.263565,24.711235,921
-95.923256,-455.635468,-287.769775,86.666664,120.000000,-510.000000,2.940147,-78.543930,22.051104,922
-59.952034,-443.645050,-299.760193,88.888885,124.444443,-517.500000,15.750788,-82.884148,19.740988,923
-71.942444,-455.635468,-215.827332,84.444443,115.555557,-515.000000,25.691284,-84.704239,18.410921,924
-83.932854,-455.635468,-203.836914,84.444443,117.777779,-517.500000,29.401470,-87.784393,18.480925,925
-47.961628,-479.616272,-119.904068,91.111115,108.888885,-517.500000,34.441723,-89.744492,19.180960,926
-47.961628,-467.625885,-47.961628,91.111115,111.111115,-522.500000,38.921947,-90.374519,22.051104,927
0.000000,-431.654663,23.980814,91.111115,104.444443,-517.500000,46.342319,-87.994400,28.141407,928
83.932854,-443.645050,59.952034,91.111115,100.000000,-522.500000,54.392719,-81.204063,34.301716,929
119.904068,-431.654663,143.884888,100.000000,91.111115,-522.500000,59.712986,-71.123558,44.102207,930
179.856110,-443.645050,143.884888,104.444443,100.000000,-525.000000,64.613228,-56.982849,57.752888,931
191.846512,-479.616272,47.961628,106.666664,86.666664,-522.500000,64.543228,-48.582428,66.783340,932
179.856110,-467.625885,71.942444,106.666664,93.333336,-525.000000,61.533077,-43.332169,75.463776,933
239.808136,-383.693024,0.000000,111.111115,82.222221,-517.500000,53.062653,-42.772141,82.044106,934
311.750580,-407.673828,-71.942444,120.000000,88.888885,-527.500000,42.002102,-47.042351,86.384323,935
287.769775,-407.673828,-167.865707,117.777779,80.000000,-522.500000,31.781590,-55.512775,89.814491,936
215.827332,-431.654663,-203.836914,120.000000,80.000000,-527.500000,27.651382,-61.253063,91.844597,937
167.865707,-551.558716,-263.788971,120.000000,75.555557,-527.500000,19.670984,-73.503677,92.964653,938
155.875290,-479.616272,-227.817734,131.111115,73.333336,-530.000000,14.560728,-88.134407,94.504723,939
47.961628,-479.616272,-287.769775,126.666664,60.000000,-522.500000,13.580679,-102.975151,93.034653,940
11.990407,-503.597107,-263.788971,133.333328,62.222221,-535.000000,10.430522,-122.716141,88.204414,941
0.000000,-479.616272,-215.827332,128.888885,53.333332,-530.000000,2.590130,-137.976898,83.654182,942
-11.990407,-515.587524,-203.836914,135.555557,51.111111,-537.500000,-4.690235,-149.667480,80.434021,943
0.000000,-551.558716,-119.904068,126.666664,37.777779,-535.000000,-3.780189,-159.817993,75.813789,944
-59.952034,-515.587524,-83.932854,133.333328,37.777779,-540.000000,2.450123,-165.978302,72.033600,945
-95.923256,-527.577942,-47.961628,133.333328,24.444445,-542.500000,10.850543,-170.458527,69.233459,946
-107.913666,-575.539551,0.000000,135.555557,17.777779,-542.500000,20.581030,-174.168716,66.993347,947
-71.942444,-575.539551,215.827332,137.777771,0.000000,-542.500000,32.831642,-177.458878,65.313263,948
-59.952034,-599.520386,263.788971,142.222229,-4.444445,-545.000000,40.462025,-177.738892,64.753235,949
0.000000,-647.481995,455.635468,140.000000,-11.111111,-545.000000,55.442772,-173.118652,63.633183,950
-23.980814,-587.529968,455.635468,144.444443,-13.333333,-547.500000,66.573326,-167.028351,62.023102,951
23.980814,-575.539551,455.635468,146.666672,-24.444445,-545.000000,68.393417,-161.778091,60.973049,952
95.923256,-575.539551,503.597107,151.111115,-26.666666,-547.500000,62.163109,-162.338120,59.852993,953
95.923256,-527.577942,743.405273,155.555557,-35.555557,-542.500000,47.252361,-166.188309,59.432972,954
131.894485,-575.539551,815.347656,153.333328,-44.444443,-547.500000,36.681835,-165.488281,62.793140,955
191.846512,-527.577942,935.251770,155.555557,-57.777779,-547.500000,31.291565,-163.108154,67.973396,956
215.827332,-503.597107,959.232544,160.000000,-60.000000,-547.500000,25.901295,-157.157852,73.573677,957
191.846512,-431.654663,1031.175049,155.555557,-73.333336,-545.000000,26.251312,-144.837250,80.784042,958
251.798553,-491.606689,983.213379,164.444443,-71.111115,-550.000000,18.130907,-142.457123,88.624435,959
263.788971,-431.654663,911.270935,157.777771,-86.666664,-545.000000,2.240112,-152.117615,95.134758,960
227.817734,-395.683441,923.261353,160.000000,-88.888885,-547.500000,-6.370318,-156.947845,103.885193,961
191.846512,-455.635468,911.270935,160.000000,-95.555557,-547.500000,-22.471125,-168.008408,107.455376,962
371.702637,-443.645050,911.270935,157.777771,-106.666664,-550.000000,-34.091705,-176.478821,111.095558,963
95.923256,-479.616272,863.309326,160.000000,-126.666664,-550.000000,-41.652084,-180.889053,112.705635,964
59.952034,-503.597107,887.290100,153.333328,-126.666664,-550.000000,-50.122505,-188.099411,111.445572,965
0.000000,-479.616272,815.347656,146.666672,-140.000000,-547.500000,-61.533077,-200.420029,106.545326,966
0.000000,-455.635468,875.299744,148.888885,-144.444443,-555.000000,-69.653481,-211.550583,102.975151,967
71.942444,-431.654663,1007.194214,137.777771,-157.777771,-552.500000,-72.103607,-219.460968,101.855095,968
71.942444,-443.645050,1055.155884,140.000000,-157.777771,-555.000000,-72.523628,-224.571228,99.264961,969
47.961628,-503.597107,1127.098267,133.333328,-180.000000,-552.500000,-70.283516,-224.711243,95.904793,970
35.971222,-491.606689,1175.059937,128.888885,-184.444443,-555.000000,-67.903397,-222.191116,91.704590,971
-23.980814,-503.597107,1342.925659,128.888885,-191.111115,-552.500000,-65.383270,-220.861038,90.864548,972
0.000000,-491.606689,1390.887207,122.222221,-206.666672,-552.500000,-66.713333,-219.880997,90.794540,973
95.923256,-503.597107,1558.752930,117.777779,-222.222229,-547.500000,-68.113403,-218.480927,89.744492,974
191.846512,-503.597107,1582.733765,115.555557,-222.222229,-550.000000,-71.753586,-213.090652,86.104309,975
215.827332,-431.654663,1534.772095,108.888885,-237.777771,-547.500000,-71.123558,-207.700394,82.254112,976
299.760193,-359.712219,1570.743286,104.444443,-240.000000,-555.000000,-64.963249,-202.730133,83.164162,977
335.731415,-287.769775,1534.772095,100.000000,-253.333328,-545.000000,-62.303116,-198.949951,88.624435,978
359.712219,-227.817734,1534.772095,102.222221,-257.777771,-542.500000,-63.983200,-195.659790,97.934898,979
455.635468,-215.827332,1438.848877,95.555557,-264.444458,-542.500000,-72.173607,-193.839691,108.155411,980
503.597107,-191.846512,1450.839233,86.666664,-277.777771,-540.000000,-84.354218,-195.729782,118.935951,981
551.558716,-143.884888,1438.848877,77.777779,-291.111115,-535.000000,-98.004898,-199.929993,129.086456,982
491.606689,-155.875290,1486.810547,75.555557,-291.111115,-542.500000,-112.915649,-206.860352,138.606934,983
287.769775,-239.808136,1582.733765,62.222221,-308.888885,-530.000000,-131.186554,-218.480927,146.727341,984
251.798553,-227.817734,1654.676147,60.000000,-311.111115,-532.500000,-151.907593,-232.131607,151.067551,985
191.846512,-311.750580,1846.522705,51.111111,-324.444458,-527.500000,-161.428070,-237.591888,152.327621,986
191.846512,-359.712219,1930.455566,40.000000,-326.666656,-527.500000,-176.478821,-241.512085,152.817642,987
191.846512,-383.693024,1990.407593,28.888889,-337.777771,-522.500000,-188.309418,-237.661880,149.037460,988
167.865707,-383.693024,2038.369263,17.777779,-351.111115,-517.500000,-200.770035,-228.281418,140.777039,989
47.961628,-419.664246,2146.282959,-6.666667,-364.444458,-512.500000,-211.060562,-214.840744,133.356674,990
143.884888,-455.635468,2230.215820,-15.555555,-368.888885,-510.000000,-215.610779,-199.019958,126.566330,991
143.884888,-455.635468,2230.215820,-28.888889,-380.000000,-500.000000,-208.330414,-175.008759,121.736092,992
167.865707,-407.673828,2062.350098,-33.333332,-382.222229,-500.000000,-194.609726,-145.047256,119.916000,993
191.846512,-395.683441,2050.359619,-46.666668,-384.444458,-497.500000,-182.289124,-116.695839,117.675888,994
191.846512,-407.673828,1942.445923,-55.555557,-384.444458,-497.500000,-173.748688,-93.664680,118.375923,995
191.846512,-371.702637,1966.426758,-64.444443,-388.888885,-487.500000,-167.308365,-78.193909,123.556183,996
383.693024,-311.750580,1966.426758,-73.333336,-388.888885,-485.000000,-161.148056,-67.693382,133.216660,997
491.606689,-275.779358,2026.378784,-93.333336,-391.111115,-480.000000,-159.677979,-63.213161,145.327271,998
575.539551,-215.827332,2014.388428,-100.000000,-384.444458,-482.500000,-164.858246,-56.982849,150.367523,999
563.549133,-203.836914,2026.378784,-113.333336,-395.555542,-480.000000,-184.459229,-58.522926,160.378021,1000
455.635468,-167.865707,2062.350098,-122.222221,-386.666656,-472.500000,-215.960800,-65.943298,166.538330,1001
359.712219,-227.817734,2122.302002,-140.000000,-393.333344,-462.500000,-249.142456,-70.913544,166.958344,1002
95.923256,-335.731415,2134.292480,-146.666672,-386.666656,-465.000000,-276.443817,-72.453621,162.128113,1003
23.980814,-383.693024,2194.244629,-166.666672,-393.333344,-455.000000,-293.664673,-71.753586,157.857895,1004
-191.846512,-383.693024,2086.330811,-177.777771,-386.666656,-447.500000,-303.325165,-60.623032,153.237671,1005
-179.856110,-551.558716,2062.350098,-191.111115,-384.444458,-440.000000,-307.035370,-38.291916,145.467270,1006
-311.750580,-623.501160,1918.465088,-213.333328,-377.777771,-430.000000,-302.765137,-18.200911,132.796646,1007
-407.673828,-635.491577,1858.513062,-231.111115,-380.000000,-420.000000,-289.394470,7.070354,121.036057,1008
-407.673828,-695.443604,1630.695313,-237.777771,-373.333344,-422.500000,-269.863495,27.021351,110.465523,1009
-407.673828,-671.462830,1546.762573,-251.111115,-380.000000,-407.500000,-249.842499,43.262165,100.665031,1010
-407.673828,-671.462830,1342.925659,-257.777771,-368.888885,-405.000000,-240.672043,50.752537,96.534828,1011
-371.702637,-671.462830,1342.925659,-271.111115,-366.666656,-405.000000,-224.011200,63.353168,86.454323,1012
-359.712219,-623.501160,1223.021484,-275.555542,-357.777771,-397.500000,-206.650330,74.553726,76.513824,1013
-287.769775,-623.501160,1235.011963,-282.222229,-351.111115,-395.000000,-188.449417,83.934196,67.133354,1014
-287.769775,-671.462830,1247.002319,-295.555542,-344.444458,-392.500000,-172.208618,93.314667,57.052853,1015
-275.779358,-659.472412,1390.887207,-306.666656,-344.444458,-387.500000,-157.997894,103.605179,47.182358,1016
-215.827332,-647.481995,1534.772095,-304.444458,-335.555542,-390.000000,-146.587326,116.625832,42.352119,1017
-179.856110,-659.472412,1570.743286,-311.111115,-335.555542,-380.000000,-144.137207,133.566681,35.141758,1018
-119.904068,-527.577942,1390.887207,-315.555542,-333.333344,-385.000000,-150.647537,152.957657,23.801189,1019
-35.971222,-467.625885,1294.963989,-322.222229,-328.888885,-380.000000,-158.487930,169.758484,14.350718,1020
-71.942444,-407.673828,983.213379,-326.666656,-320.000000,-380.000000,-163.598175,180.679031,8.960448,1021
-119.904068,-395.683441,863.309326,-333.333344,-320.000000,-377.500000,-166.888351,186.559326,5.320266,1022
-143.884888,-383.693024,623.501160,-335.555542,-311.111115,-372.500000,-168.498428,186.699341,3.500175,1023
-143.884888,-347.721802,599.520386,-346.666656,-304.444458,-367.500000,-173.748688,181.939102,-1.400070,1024
-119.904068,-359.712219,335.731415,-346.666656,-297.777771,-367.500000,-179.698990,170.388519,-5.460273,1025
-143.884888,-347.721802,263.788971,-357.777771,-300.000000,-362.500000,-182.429123,154.077713,-7.910396,1026
-191.846512,-383.693024,191.846512,-355.555542,-291.111115,-360.000000,-179.348969,137.346863,-8.050403,1027
-203.836914,-407.673828,167.865707,-366.666656,-300.000000,-355.000000,-173.818695,121.176064,-8.120406,1028
-215.827332,-479.616272,167.865707,-364.444458,-286.666656,-352.500000,-167.308365,109.835495,-12.180609,1029
-167.865707,-455.635468,179.856110,-371.111115,-288.888885,-350.000000,-158.487930,103.395172,-17.710886,1030
-191.846512,-407.673828,143.884888,-373.333344,-288.888885,-350.000000,-149.527481,101.505074,-26.251312,1031
-203.836914,-419.664246,59.952034,-382.222229,-288.888885,-337.500000,-139.586975,101.575081,-33.741688,1032
-191.846512,-359.712219,47.961628,-380.000000,-282.222229,-340.000000,-127.056351,102.415123,-39.972000,1033
-167.865707,-347.721802,-23.980814,-388.888885,-286.666656,-332.500000,-112.215614,103.115158,-44.452225,1034
-191.846512,-311.750580,-143.884888,-384.444458,-284.444458,-335.000000,-105.075256,103.045151,-47.532375,1035
-167.865707,-335.731415,-167.865707,-388.888885,-291.111115,-330.000000,-90.724541,102.275116,-49.422470,1036
-143.884888,-287.769775,-167.865707,-384.444458,-277.777771,-332.500000,-75.743790,100.175011,-51.382568,1037
-143.884888,-275.779358,-215.827332,-388.888885,-293.333344,-322.500000,-60.553028,97.304863,-54.742737,1038
-191.846512,-263.788971,-215.827332,-388.888885,-284.444458,-330.000000,-43.612183,95.554779,-58.662933,1039
-167.865707,-263.788971,-239.808136,-386.666656,-288.888885,-332.500000,-23.241163,95.904793,-61.533077,1040
-143.884888,-215.827332,-239.808136,-388.888885,-284.444458,-335.000000,-0.980049,98.424919,-65.593277,1041
-143.884888,-215.827332,-203.836914,-388.888885,-288.888885,-335.000000,20.721037,102.695137,-69.793488,1042
-95.923256,-191.846512,-215.827332,-380.000000,-286.666656,-337.500000,38.711937,106.055305,-73.433670,1043
-131.894485,-203.836914,-203.836914,-382.222229,-288.888885,-342.500000,54.182709,108.155411,-76.023804,1044
-167.865707,-215.827332,-167.865707,-377.777771,-284.444458,-345.000000,68.743439,108.225410,-77.493874,1045
-119.904068,-203.836914,-167.865707,-382.222229,-288.888885,-345.000000,82.254112,106.265312,-83.164162,1046
-47.961628,-167.865707,-143.884888,-373.333344,-288.888885,-355.000000,92.754639,104.235214,-88.694435,1047
-11.990407,-155.875290,-119.904068,-366.666656,-288.888885,-360.000000,96.744835,102.695137,-91.634583,1048
71.942444,-47.961628,-95.923256,-357.777771,-286.666656,-367.500000,100.595032,99.334969,-97.934898,1049
143.884888,-11.990407,-107.913666,-357.777771,-297.777771,-367.500000,101.785088,94.224709,-102.625130,1050
191.846512,23.980814,-95.923256,-351.111115,-291.111115,-377.500000,101.995102,87.784393,-107.875397,1051
191.846512,47.961628,-83.932854,-346.666656,-302.222229,-377.500000,102.205109,82.534126,-111.725586,1052
239.808136,143.884888,-47.961628,-337.777771,-295.555542,-387.500000,104.445221,77.843895,-112.425621,1053
275.779358,119.904068,-83.932854,-337.777771,-302.222229,-390.000000,108.015404,73.993698,-109.695488,1054
311.750580,191.846512,-23.980814,-328.888885,-300.000000,-395.000000,111.515579,69.933495,-108.365417,1055
299.760193,191.846512,-23.980814,-328.888885,-302.222229,-397.500000,115.225761,67.483376,-105.215263,1056
263.788971,71.942444,71.942444,-322.222229,-302.222229,-405.000000,117.325867,64.473221,-102.765137,1057
251.798553,107.913666,47.961628,-311.111115,-313.333344,-410.000000,121.106056,62.373119,-101.435074,1058
287.769775,0.000000,47.961628,-300.000000,-302.222229,-417.500000,127.336365,62.303116,-99.684982,1059
287.769775,23.980814,95.923256,-300.000000,-306.666656,-417.500000,132.026596,63.493176,-99.054955,1060
311.750580,-23.980814,47.961628,-286.666656,-306.666656,-430.000000,139.936996,70.213509,-100.665031,1061
299.760193,35.971222,83.932854,-288.888885,-308.888885,-425.000000,144.977249,73.293663,-104.305214,1062
263.788971,-23.980814,71.942444,-277.777771,-304.444458,-435.000000,146.727341,71.473572,-109.065453,1063
275.779358,35.971222,35.971222,-271.111115,-306.666656,-435.000000,146.027298,63.353168,-115.855797,1064
287.769775,71.942444,0.000000,-264.444458,-313.333344,-442.500000,141.897095,56.772839,-120.616035,1065
215.827332,71.942444,-23.980814,-251.111115,-320.000000,-450.000000,137.206863,52.012600,-123.836197,1066
191.846512,71.942444,-71.942444,-242.222229,-315.555542,-455.000000,130.136505,43.332169,-126.426323,1067
191.846512,35.971222,-83.932854,-242.222229,-317.777771,-455.000000,121.106056,33.041653,-128.666428,1068
191.846512,23.980814,0.000000,-231.111115,-313.333344,-465.000000,113.685684,22.331118,-131.956604,1069
191.846512,47.961628,11.990407,-226.666672,-322.222229,-457.500000,110.255516,11.550578,-134.686737,1070
311.750580,71.942444,23.980814,-213.333328,-317.777771,-465.000000,109.275467,1.750087,-135.176758,1071
287.769775,95.923256,23.980814,-213.333328,-333.333344,-465.000000,109.975502,-3.150157,-135.246765,1072
311.750580,167.865707,71.942444,-206.666672,-331.111115,-470.000000,111.655586,-13.020651,-135.876801,1073
371.702637,203.836914,119.904068,-197.777771,-328.888885,-472.500000,112.635635,-19.880995,-138.116913,1074
383.693024,239.808136,215.827332,-186.666672,-328.888885,-472.500000,116.065804,-23.731186,-138.536926,1075
479.616272,275.779358,299.760193,-180.000000,-342.222229,-470.000000,123.696190,-24.221210,-138.186905,1076
575.539551,191.846512,383.693024,-171.111115,-344.444458,-475.000000,138.816940,-19.040953,-132.166611,1077
599.520386,251.798553,443.645050,-166.666672,-351.111115,-475.000000,159.047958,-8.820441,-124.606232,1078
599.520386,215.827332,503.597107,-153.333328,-344.444458,-482.500000,180.749039,6.930346,-114.805740,1079
587.529968,203.836914,527.577942,-144.444443,-353.333344,-485.000000,200.910049,18.830942,-103.815193,1080
599.520386,191.846512,599.520386,-135.555557,-346.666656,-485.000000,216.240814,29.121456,-93.104660,1081
575.539551,179.856110,623.501160,-126.666664,-344.444458,-490.000000,225.201263,39.901997,-83.654182,1082
551.558716,143.884888,671.462830,-104.444443,-340.000000,-495.000000,229.541473,48.092403,-74.623734,1083
563.549133,143.884888,659.472412,-95.555557,-346.666656,-497.500000,229.471481,36.401821,-66.713333,1084
695.443604,23.980814,719.424438,-82.222221,-337.777771,-502.500000,227.441376,58.102905,-65.103256,1085
635.491577,119.904068,719.424438,-77.777779,-340.000000,-502.500000,219.880997,65.593277,-64.263214,1086
599.520386,167.865707,575.539551,-64.444443,-333.333344,-512.500000,209.310471,68.393417,-62.163109,1087
695.443604,143.884888,479.616272,-60.000000,-337.777771,-507.500000,194.329712,61.043053,-63.773190,1088
503.597107,311.750580,407.673828,-48.888889,-328.888885,-515.000000,167.028351,45.082256,-69.723488,1089
491.606689,215.827332,335.731415,-42.222221,-328.888885,-512.500000,147.777390,56.982849,-54.882744,1090
455.635468,191.846512,335.731415,-33.333332,-324.444458,-512.500000,138.956955,34.091705,-46.972347,1091
407.673828,203.836914,395.683441,-24.444445,-326.666656,-515.000000,132.166611,1.540077,-44.032204,1092
359.712219,191.846512,527.577942,-15.555555,-326.666656,-517.500000,129.856491,-21.141058,-46.972347,1093
383.693024,239.808136,563.549133,-11.111111,-331.111115,-515.000000,133.986694,-39.131958,-53.132656,1094
239.808136,215.827332,767.386047,-2.222222,-324.444458,-517.500000,136.506821,-59.152958,-61.463074,1095
227.817734,215.827332,803.357300,2.222222,-333.333344,-512.500000,135.316772,-76.653831,-66.853340,1096
215.827332,191.846512,1079.136597,11.111111,-331.111115,-515.000000,135.246765,-81.414070,-68.953445,1097
239.808136,179.856110,1235.011963,17.777779,-337.777771,-507.500000,138.186905,-82.744141,-69.653481,1098
287.769775,143.884888,1486.810547,26.666666,-337.777771,-510.000000,142.737137,-76.723839,-65.943298,1099
359.712219,143.884888,1594.724121,33.333332,-344.444458,-502.500000,148.547424,-67.553375,-56.772839,1100
359.712219,215.827332,1702.637817,44.444443,-340.000000,-505.000000,152.607635,-64.193207,-48.862442,1101
443.645050,191.846512,1738.609009,51.111111,-346.666656,-502.500000,146.097305,-32.971649,-39.341969,1102
551.558716,119.904068,1822.541870,60.000000,-340.000000,-502.500000,134.476730,-4.690235,-34.441723,1103
599.520386,179.856110,1750.599487,64.444443,-346.666656,-497.500000,126.566330,4.690235,-29.961498,1104
575.539551,263.788971,1582.733765,66.666664,-337.777771,-502.500000,125.166260,12.950647,-22.821142,1105
575.539551,239.808136,1534.772095,75.555557,-344.444458,-502.500000,121.246063,66.503326,-8.330417,1106
551.558716,167.865707,1294.963989,75.555557,-333.333344,-500.000000,121.036057,98.424919,1.610080,1107
551.558716,167.865707,1247.002319,86.666664,-331.111115,-502.500000,122.506126,77.983902,8.890445,1108
575.539551,191.846512,1103.117432,95.555557,-320.000000,-502.500000,122.226112,67.763390,16.800840,1109
575.539551,227.817734,1103.117432,97.777779,-324.444458,-500.000000,121.456078,56.632832,20.511026,1110
551.558716,215.827332,983.213379,106.666664,-317.777771,-502.500000,121.666084,45.362270,30.031502,1111
503.597107,215.827332,1019.184631,111.111115,-322.222229,-497.500000,121.526077,30.521526,37.941898,1112
407.673828,191.846512,1055.155884,111.111115,-315.555542,-507.500000,116.415825,11.340568,43.612183,1113
383.693024,107.913666,1103.117432,113.333336,-322.222229,-497.500000,105.985298,-5.250263,44.732239,1114
383.693024,0.000000,1247.002319,117.777779,-320.000000,-500.000000,90.024506,-19.390970,41.512077,1115
347.721802,-11.990407,1342.925659,122.222221,-320.000000,-497.500000,79.313965,-28.141407,34.301716,1116
335.731415,-47.961628,1438.848877,131.111115,-320.000000,-495.000000,73.433670,-29.471474,23.311165,1117
203.836914,-131.894485,1474.820068,131.111115,-324.444458,-487.500000,70.423523,-24.641232,14.000700,1118
119.904068,-191.846512,1510.791260,133.333328,-322.222229,-495.000000,66.433319,-17.430872,8.820441,1119
83.932854,-227.817734,1534.772095,133.333328,-324.444458,-482.500000,61.113056,-9.660483,4.690235,1120
95.923256,-215.827332,1558.752930,137.777771,-320.000000,-495.000000,62.583130,-4.900245,1.190060,1121
143.884888,-203.836914,1534.772095,137.777771,-324.444458,-485.000000,66.433319,7.980399,1.400070,1122
47.961628,-215.827332,1414.868042,144.444443,-315.555542,-485.000000,77.003853,17.920897,2.940147,1123
23.980814,-239.808136,1390.887207,146.666672,-320.000000,-485.000000,82.464127,23.871193,2.100105,1124
23.980814,-191.846512,1342.925659,151.111115,-315.555542,-490.000000,84.354218,27.091354,2.310116,1125
11.990407,-191.846512,1282.973511,155.555557,-320.000000,-480.000000,83.514175,28.001400,0.910046,1126
95.923256,-239.808136,1127.098267,162.222229,-308.888885,-487.500000,81.624084,26.671333,-1.260063,1127
155.875290,-191.846512,1115.107910,162.222229,-317.777771,-480.000000,81.904099,23.241163,-2.520126,1128
167.865707,-143.884888,1079.136597,168.888885,-308.888885,-482.500000,83.304169,17.080854,-1.820091,1129
203.836914,-71.942444,1055.155884,166.666672,-315.555542,-480.000000,82.814140,12.600630,-2.450123,1130
215.827332,-47.961628,1055.155884,173.333328,-311.111115,-477.500000,76.863846,8.400420,-3.850193,1131
215.827332,-35.971222,1079.136597,175.555557,-311.111115,-477.500000,67.273361,2.660133,-6.720336,1132
239.808136,-47.961628,1175.059937,175.555557,-311.111115,-472.500000,54.042702,-4.620231,-9.170459,1133
299.760193,-11.990407,1199.040771,180.000000,-311.111115,-472.500000,46.692333,-7.840392,-8.400420,1134
359.712219,-23.980814,1151.079102,182.222229,-308.888885,-472.500000,31.221561,-14.000700,-6.230311,1135
347.721802,11.990407,1187.050293,177.777771,-315.555542,-470.000000,18.480925,-19.600981,-1.400070,1136
383.693024,47.961628,1223.021484,180.000000,-308.888885,-475.000000,11.480575,-23.381168,5.670284,1137
