ACC_X,ACC_Y,ACC_Z,MAG_X,MAG_Y,MAG_Z, GYRO_Y,GYRO_X,GYRO_Z,COUNT
-47.961628,0.000000,911.270935,233.333328,-353.333344,-412.500000,-3.920196,-1.750087,0.070004,0
-47.961628,23.980814,911.270935,231.111115,-346.666656,-410.000000,-4.340217,-1.890095,0.840042,1
-35.971222,23.980814,899.280518,228.888885,-351.111115,-407.500000,-3.920196,-2.590130,0.840042,2
-23.980814,0.000000,911.270935,233.333328,-346.666656,-415.000000,-4.480224,-2.450123,1.260063,3
-11.990407,23.980814,899.280518,226.666672,-355.555542,-410.000000,-4.270214,-2.310116,1.820091,4
-71.942444,23.980814,923.261353,235.555557,-344.444458,-417.500000,-4.900245,-2.590130,1.680084,5
-23.980814,0.000000,911.270935,231.111115,-351.111115,-410.000000,-4.970249,-2.450123,1.820091,6
-23.980814,35.971222,887.290100,228.888885,-342.222229,-415.000000,-4.970249,-3.080154,2.100105,7
-71.942444,47.961628,887.290100,226.666672,-348.888885,-410.000000,-4.830242,-2.800140,2.450123,8
-83.932854,11.990407,899.280518,231.111115,-348.888885,-415.000000,-5.530277,-3.080154,2.590130,9
-71.942444,23.980814,863.309326,228.888885,-351.111115,-412.500000,-5.600280,-3.150157,2.870144,10
-35.971222,47.961628,911.270935,231.111115,-351.111115,-417.500000,-5.810291,-3.360168,3.360168,11
-167.865707,47.961628,935.251770,228.888885,-351.111115,-410.000000,-5.810291,-3.080154,3.850193,12
-95.923256,0.000000,947.242188,228.888885,-348.888885,-415.000000,-4.690235,-0.560028,11.270564,13
0.000000,23.980814,863.309326,226.666672,-357.777771,-410.000000,-7.070354,-2.800140,5.810291,14
-11.990407,23.980814,887.290100,231.111115,-351.111115,-410.000000,-7.000350,-2.660133,6.020301,15
-23.980814,0.000000,935.251770,226.666672,-346.666656,-407.500000,-7.000350,-2.660133,5.950297,16
-47.961628,11.990407,923.261353,228.888885,-346.666656,-412.500000,-7.560378,-2.800140,5.600280,17
191.846512,239.808136,887.290100,224.444443,-355.555542,-410.000000,-9.240462,-5.320266,7.840392,18
-71.942444,59.952034,887.290100,224.444443,-348.888885,-415.000000,-7.980399,-3.220161,17.850893,19
-95.923256,-23.980814,863.309326,222.222229,-357.777771,-407.500000,-10.220511,-3.850193,12.880644,20
-35.971222,0.000000,887.290100,226.666672,-346.666656,-415.000000,-10.500525,-3.500175,11.620582,21
-71.942444,23.980814,863.309326,224.444443,-355.555542,-410.000000,-9.170459,-2.380119,9.730487,22
-47.961628,0.000000,875.299744,224.444443,-351.111115,-420.000000,-7.910396,-2.520126,6.230311,23
-143.884888,455.635468,935.251770,222.222229,-351.111115,-410.000000,-6.860343,-2.870144,5.530277,24
-35.971222,95.923256,899.280518,224.444443,-346.666656,-410.000000,-6.160308,-2.800140,12.110605,25
0.000000,0.000000,911.270935,224.444443,-357.777771,-410.000000,-5.600280,-3.640182,17.150858,26
-35.971222,0.000000,899.280518,224.444443,-348.888885,-415.000000,-5.950297,-3.080154,17.360868,27
0.000000,23.980814,911.270935,220.000000,-357.777771,-412.500000,-7.000350,-3.430171,13.650682,28
-35.971222,-47.961628,923.261353,226.666672,-351.111115,-417.500000,-5.740287,-2.030102,8.960448,29
-23.980814,0.000000,887.290100,222.222229,-351.111115,-410.000000,-4.340217,-1.960098,4.270214,30
-35.971222,11.990407,875.299744,224.444443,-348.888885,-412.500000,-2.170109,-1.470073,2.590130,31
-23.980814,0.000000,911.270935,220.000000,-351.111115,-415.000000,-0.490025,-0.420021,1.400070,32
-35.971222,83.932854,911.270935,224.444443,-353.333344,-410.000000,1.610080,-0.280014,1.470073,33
-47.961628,-95.923256,887.290100,222.222229,-360.000000,-407.500000,5.670284,1.330067,4.270214,34
-11.990407,-23.980814,887.290100,224.444443,-351.111115,-417.500000,4.900245,0.980049,1.470073,35
-47.961628,0.000000,935.251770,222.222229,-357.777771,-410.000000,4.270214,1.610080,-2.660133,36
-35.971222,23.980814,923.261353,226.666672,-351.111115,-412.500000,4.200210,1.120056,-2.170109,37
-71.942444,-23.980814,959.232544,222.222229,-353.333344,-405.000000,2.730137,-0.210010,-3.360168,38
-35.971222,-11.990407,947.242188,226.666672,-351.111115,-415.000000,2.170109,-0.910046,-1.820091,39
-47.961628,23.980814,911.270935,226.666672,-355.555542,-410.000000,0.630032,-1.050053,-0.840042,40
-59.952034,0.000000,899.280518,224.444443,-355.555542,-415.000000,0.490025,-0.420021,-0.910046,41
-143.884888,23.980814,911.270935,220.000000,-355.555542,-410.000000,0.420021,-0.140007,-1.750087,42
-35.971222,11.990407,899.280518,226.666672,-351.111115,-412.500000,0.490025,-0.280014,-2.520126,43
-71.942444,23.980814,887.290100,224.444443,-360.000000,-415.000000,1.400070,-0.840042,-3.360168,44
-59.952034,23.980814,899.280518,226.666672,-351.111115,-417.500000,0.980049,-0.980049,-3.220161,45
-23.980814,0.000000,887.290100,222.222229,-355.555542,-412.500000,0.980049,-0.840042,-3.080154,46
-59.952034,35.971222,887.290100,224.444443,-353.333344,-415.000000,0.910046,-0.420021,-3.570179,47
-95.923256,23.980814,887.290100,226.666672,-357.777771,-412.500000,0.700035,-0.210010,-4.200210,48
-71.942444,23.980814,911.270935,224.444443,-353.333344,-415.000000,-0.140007,-0.910046,-5.530277,49
-23.980814,23.980814,863.309326,224.444443,-351.111115,-412.500000,-1.190060,-1.470073,-5.530277,50
-47.961628,47.961628,887.290100,224.444443,-353.333344,-412.500000,-1.400070,-1.610080,-4.410221,51
-95.923256,23.980814,887.290100,222.222229,-355.555542,-410.000000,-1.890095,-1.610080,-2.800140,52
-83.932854,11.990407,947.242188,226.666672,-348.888885,-412.500000,-2.520126,-2.030102,-1.260063,53
23.980814,-47.961628,911.270935,222.222229,-357.777771,-407.500000,-5.110256,-3.990200,-2.380119,54
0.000000,23.980814,887.290100,226.666672,-351.111115,-417.500000,-5.110256,-4.340217,-2.450123,55
-71.942444,23.980814,911.270935,222.222229,-360.000000,-407.500000,-4.060203,-2.800140,-1.190060,56
-59.952034,23.980814,887.290100,222.222229,-353.333344,-417.500000,-3.570179,-2.030102,-0.700035,57
-71.942444,0.000000,911.270935,226.666672,-353.333344,-410.000000,-3.080154,-1.470073,-0.910046,58
-47.961628,23.980814,923.261353,226.666672,-346.666656,-417.500000,-7.420371,-2.450123,-1.540077,59
0.000000,0.000000,887.290100,222.222229,-353.333344,-415.000000,-6.580329,-1.540077,-1.540077,60
-47.961628,23.980814,875.299744,226.666672,-351.111115,-415.000000,-5.390270,-0.420021,-2.870144,61
-23.980814,23.980814,887.290100,222.222229,-362.222229,-410.000000,-4.760238,0.630032,-2.870144,62
-35.971222,11.990407,863.309326,222.222229,-353.333344,-417.500000,-3.710186,0.840042,-2.800140,63
-47.961628,0.000000,863.309326,224.444443,-355.555542,-410.000000,-1.820091,2.380119,-3.360168,64
-23.980814,0.000000,899.280518,224.444443,-353.333344,-417.500000,-0.420021,2.450123,-4.690235,65
-47.961628,0.000000,911.270935,224.444443,-353.333344,-415.000000,0.000000,2.870144,-5.180259,66
-47.961628,-11.990407,935.251770,220.000000,-351.111115,-415.000000,0.490025,2.450123,-5.180259,67
-71.942444,47.961628,935.251770,224.444443,-360.000000,-407.500000,1.190060,2.520126,-3.850193,68
-47.961628,11.990407,911.270935,224.444443,-351.111115,-415.000000,1.400070,2.170109,-2.240112,69
-23.980814,47.961628,863.309326,224.444443,-355.555542,-410.000000,0.280014,1.680084,-1.050053,70
-23.980814,59.952034,887.290100,226.666672,-351.111115,-417.500000,-0.490025,0.840042,-2.310116,71
-263.788971,215.827332,911.270935,222.222229,-353.333344,-410.000000,5.530277,1.470073,-3.640182,72
-35.971222,-59.952034,911.270935,228.888885,-348.888885,-412.500000,-2.730137,-0.350018,0.000000,73
-143.884888,71.942444,887.290100,224.444443,-353.333344,-410.000000,-3.360168,0.770038,3.430171,74
-167.865707,107.913666,887.290100,222.222229,-348.888885,-412.500000,-0.350018,1.750087,3.290164,75
-23.980814,23.980814,863.309326,222.222229,-360.000000,-410.000000,-0.350018,1.960098,5.460273,76
-59.952034,23.980814,887.290100,224.444443,-357.777771,-412.500000,5.670284,4.130207,7.350368,77
-95.923256,0.000000,863.309326,222.222229,-357.777771,-410.000000,2.870144,3.360168,5.880294,78
11.990407,-11.990407,923.261353,226.666672,-351.111115,-415.000000,3.500175,3.920196,5.600280,79
-71.942444,0.000000,959.232544,222.222229,-353.333344,-412.500000,3.360168,2.940147,2.380119,80
23.980814,-71.942444,923.261353,224.444443,-346.666656,-412.500000,7.770389,6.300315,6.230311,81
-23.980814,-23.980814,911.270935,226.666672,-353.333344,-412.500000,-3.780189,2.660133,0.490025,82
-59.952034,-11.990407,899.280518,224.444443,-353.333344,-417.500000,-4.760238,-0.980049,-0.210010,83
-191.846512,-71.942444,935.251770,226.666672,-351.111115,-417.500000,0.770038,1.470073,1.750087,84
-71.942444,-11.990407,899.280518,231.111115,-351.111115,-417.500000,0.280014,0.840042,2.450123,85
0.000000,23.980814,887.290100,220.000000,-357.777771,-407.500000,-7.210361,-3.220161,1.470073,86
-11.990407,23.980814,899.280518,224.444443,-353.333344,-412.500000,-8.330417,-4.130207,2.380119,87
-95.923256,0.000000,935.251770,222.222229,-357.777771,-415.000000,-8.400420,-3.990200,2.310116,88
-59.952034,11.990407,887.290100,222.222229,-348.888885,-412.500000,-7.700385,-3.640182,2.730137,89
-71.942444,23.980814,839.328491,222.222229,-357.777771,-407.500000,-4.900245,-2.170109,2.380119,90
-47.961628,23.980814,863.309326,224.444443,-353.333344,-415.000000,-3.640182,-1.190060,2.800140,91
-95.923256,23.980814,959.232544,222.222229,-351.111115,-412.500000,-2.310116,0.420021,4.060203,92
-83.932854,11.990407,911.270935,224.444443,-346.666656,-417.500000,-2.730137,0.840042,6.370318,93
-599.520386,647.481995,887.290100,222.222229,-355.555542,-407.500000,-1.120056,-2.800140,10.290515,94
-167.865707,95.923256,923.261353,224.444443,-348.888885,-417.500000,-0.140007,-2.100105,21.631083,95
-191.846512,95.923256,863.309326,215.555557,-357.777771,-415.000000,-3.220161,-4.550228,29.751488,96
-119.904068,-11.990407,887.290100,224.444443,-353.333344,-412.500000,-4.970249,-7.490375,25.201260,97
-263.788971,-167.865707,935.251770,220.000000,-360.000000,-410.000000,-3.430171,-8.610431,21.491076,98
-239.808136,-155.875290,767.386047,222.222229,-351.111115,-415.000000,-5.880294,-15.960798,10.150508,99
-95.923256,-143.884888,935.251770,217.777771,-360.000000,-417.500000,-12.670633,-23.171160,-2.730137,100
-23.980814,-71.942444,911.270935,220.000000,-353.333344,-412.500000,-15.190760,-32.131607,-11.410571,101
23.980814,-23.980814,887.290100,213.333328,-360.000000,-415.000000,-18.550928,-34.511726,-11.550578,102
0.000000,47.961628,875.299744,220.000000,-357.777771,-415.000000,-25.691284,-37.521877,-6.160308,103
-71.942444,47.961628,911.270935,215.555557,-364.444458,-410.000000,-28.211411,-30.731537,5.810291,104
0.000000,23.980814,971.222961,217.777771,-362.222229,-412.500000,-34.651733,-38.781940,19.950998,105
-47.961628,71.942444,887.290100,213.333328,-368.888885,-410.000000,-42.142109,-46.972347,33.881695,106
-11.990407,47.961628,887.290100,213.333328,-366.666656,-412.500000,-36.961849,-49.632481,48.862442,107
-23.980814,23.980814,1031.175049,211.111115,-371.111115,-407.500000,-33.041653,-49.002449,53.272663,108
-59.952034,119.904068,995.203796,208.888885,-373.333344,-407.500000,-33.811691,-59.993000,59.642982,109
95.923256,215.827332,983.213379,202.222229,-384.444458,-410.000000,-34.721737,-75.743790,68.813438,110
119.904068,251.798553,1019.184631,202.222229,-380.000000,-410.000000,-35.281765,-82.184113,67.833389,111
-47.961628,143.884888,1031.175049,200.000000,-384.444458,-407.500000,-40.462025,-56.632832,53.062653,112
-23.980814,143.884888,1091.127075,197.777771,-377.777771,-412.500000,-47.952396,-36.121807,37.311867,113
191.846512,215.827332,1247.002319,191.111115,-388.888885,-405.000000,-60.693035,-32.061604,24.151207,114
143.884888,59.952034,1342.925659,195.555557,-384.444458,-410.000000,-104.165207,-43.682186,-13.510675,115
0.000000,-47.961628,1318.944824,191.111115,-391.111115,-405.000000,-148.197418,-54.882744,-46.342319,116
83.932854,-71.942444,1378.896851,184.444443,-391.111115,-410.000000,-190.059509,-59.922997,-81.974098,117
191.846512,-143.884888,1606.714600,182.222229,-391.111115,-412.500000,-222.051102,-59.852993,-117.115860,118
203.836914,-179.856110,1678.656982,173.333328,-384.444458,-417.500000,-216.450821,-57.472874,-127.616379,119
191.846512,-167.865707,1726.618652,171.111115,-395.555542,-412.500000,-209.310471,-34.651733,-130.696533,120
131.894485,-191.846512,1558.752930,168.888885,-386.666656,-422.500000,-192.089600,-7.210361,-133.356674,121
-167.865707,-311.750580,1462.829712,157.777771,-388.888885,-420.000000,-177.948898,21.141058,-141.197067,122
-251.798553,-287.769775,1330.935181,164.444443,-375.555542,-425.000000,-159.677979,10.080504,-150.157516,123
-431.654663,-407.673828,1342.925659,162.222229,-386.666656,-422.500000,-137.486877,19.460974,-166.118301,124
-635.491577,-443.645050,1258.992798,157.777771,-380.000000,-427.500000,-114.175713,39.551979,-177.528885,125
-1798.561035,-383.693024,695.443604,162.222229,-377.777771,-430.000000,-68.393417,79.523979,-159.187958,126
-1750.599487,-443.645050,659.472412,164.444443,-362.222229,-437.500000,43.822193,198.529922,-87.294365,127
-167.865707,-383.693024,1438.848877,171.111115,-360.000000,-437.500000,130.976547,235.211761,-73.293663,128
-179.856110,-563.549133,1714.628174,182.222229,-346.666656,-437.500000,158.277908,177.248871,-93.104660,129
-167.865707,-383.693024,2062.350098,186.666672,-346.666656,-440.000000,157.367874,178.298920,-119.285965,130
-47.961628,-263.788971,2062.350098,195.555557,-333.333344,-450.000000,152.257614,206.090302,-116.135811,131
263.788971,-239.808136,2110.311768,197.777771,-335.555542,-445.000000,152.957657,216.800842,-105.985298,132
455.635468,-191.846512,2158.273193,206.666672,-320.000000,-450.000000,159.817993,215.890793,-78.963951,133
575.539551,-215.827332,2158.273193,211.111115,-311.111115,-450.000000,163.038147,195.729782,-51.732586,134
467.625885,-203.836914,2158.273193,217.777771,-311.111115,-445.000000,154.497726,178.998947,-45.012253,135
215.827332,-239.808136,2206.234863,231.111115,-300.000000,-447.500000,142.667130,177.948898,-58.102905,136
83.932854,-287.769775,2194.244629,235.555557,-288.888885,-455.000000,137.066849,178.578934,-76.653831,137
-239.808136,-455.635468,2446.042969,235.555557,-288.888885,-450.000000,134.966751,182.359116,-98.564926,138
-347.721802,-539.568298,2649.879883,246.666672,-280.000000,-450.000000,133.356674,185.999298,-122.296120,139
-287.769775,-575.539551,3021.582520,251.111115,-275.555542,-455.000000,133.356674,194.259720,-151.277573,140
-179.856110,-527.577942,3213.429199,262.222229,-255.555557,-457.500000,143.437180,213.300674,-166.538330,141
23.980814,-479.616272,3525.179688,264.444458,-255.555557,-452.500000,160.518021,244.872253,-167.098358,142
59.952034,-455.635468,3693.045410,275.555542,-242.222229,-460.000000,177.038849,287.504364,-159.607986,143
143.884888,-503.597107,3980.815186,286.666656,-220.000000,-457.500000,182.079102,311.095551,-155.897797,144
179.856110,-539.568298,4184.651855,300.000000,-202.222229,-457.500000,182.499130,353.727692,-149.947495,145
575.539551,-335.731415,4412.469727,304.444458,-193.333328,-455.000000,173.328674,390.479523,-142.317123,146
659.472412,-263.788971,4388.489258,315.555542,-171.111115,-460.000000,162.968155,427.931396,-124.186211,147
791.366882,-95.923256,4292.565918,313.333344,-160.000000,-450.000000,156.737839,464.683228,-95.414772,148
791.366882,155.875290,4172.661621,322.222229,-137.777771,-457.500000,145.817291,484.284210,-72.523628,149
791.366882,623.501160,3741.007080,331.111115,-126.666664,-445.000000,124.326218,492.894653,-51.382568,150
827.338074,839.328491,3513.189209,333.333344,-106.666664,-450.000000,105.285263,502.555145,-28.771439,151
671.462830,1151.079102,3141.486572,342.222229,-86.666664,-445.000000,93.034653,512.285645,-13.650682,152
359.712219,1211.031128,2973.621094,348.888885,-55.555557,-445.000000,75.953796,512.285645,-10.780540,153
-239.808136,1318.944824,2661.870361,346.666656,-44.444443,-432.500000,46.202312,513.685669,-13.930696,154
-491.606689,1354.916016,2529.975830,351.111115,-20.000000,-437.500000,7.770389,518.095886,-14.420721,155
-959.232544,1414.868042,2254.196533,348.888885,-6.666667,-430.000000,-9.240462,520.966064,-9.450473,156
-1127.098267,1438.848877,2194.244629,353.333344,15.555555,-432.500000,-37.801891,530.556519,-3.360168,157
-1151.079102,1750.599487,1990.407593,346.666656,24.444445,-417.500000,-51.522575,548.477417,12.880644,158
-887.290100,2062.350098,1810.551514,348.888885,44.444443,-420.000000,-42.632133,579.768982,31.641582,159
-599.520386,2470.023926,1534.772095,348.888885,62.222221,-412.500000,4.270214,632.551636,53.342667,160
-539.568298,2625.899170,1187.050293,360.000000,100.000000,-382.500000,84.284218,693.384705,70.983551,161
-407.673828,2925.659424,647.481995,362.222229,111.111115,-362.500000,163.388168,734.266724,75.603783,162
-299.760193,3057.553711,443.645050,375.555542,137.777771,-352.500000,221.771088,748.267395,65.453270,163
335.731415,2901.678467,311.750580,380.000000,146.666672,-317.500000,255.232758,740.637024,46.902344,164
311.750580,3309.352295,-59.952034,391.111115,171.111115,-300.000000,266.293304,700.525024,13.650682,165
623.501160,3453.237305,-743.405273,391.111115,175.555557,-270.000000,271.403564,671.473572,-1.610080,166
755.395630,3465.227783,-923.261353,400.000000,191.111115,-252.500000,272.663635,632.411621,-14.070704,167
983.213379,3381.294922,-1414.868042,402.222229,206.666672,-230.000000,259.362976,586.699341,-26.111305,168
1007.194214,3297.362061,-1558.752930,404.444458,211.111115,-205.000000,245.222260,560.798035,-31.641582,169
959.232544,2925.659424,-1726.618652,406.666656,226.666672,-165.000000,203.150162,502.275116,-40.672035,170
935.251770,2757.793701,-1810.551514,411.111115,235.555557,-155.000000,149.247467,445.572296,-47.112354,171
887.290100,2398.081543,-1798.561035,406.666656,235.555557,-132.500000,93.384666,386.489319,-49.842491,172
815.347656,2206.234863,-1834.532349,408.888885,244.444443,-130.000000,46.062305,316.555817,-52.292614,173
647.481995,1798.561035,-1846.522705,400.000000,240.000000,-117.500000,12.040602,252.362625,-48.302414,174
623.501160,1642.685791,-1798.561035,404.444458,248.888885,-115.000000,-1.820091,198.599930,-33.391670,175
527.577942,1318.944824,-1702.637817,402.222229,248.888885,-100.000000,6.230311,156.947845,-7.910396,176
503.597107,1127.098267,-1630.695313,400.000000,248.888885,-102.500000,26.181309,124.676231,25.551277,177
527.577942,839.328491,-1510.791260,404.444458,244.444443,-92.500000,48.792439,98.214912,61.253063,178
659.472412,671.462830,-1402.877686,406.666656,251.111115,-92.500000,62.723137,64.473221,97.584877,179
791.366882,599.520386,-1342.925659,408.888885,240.000000,-80.000000,63.003151,16.730837,127.406372,180
863.309326,563.549133,-1294.963989,417.777771,244.444443,-82.500000,57.472874,-1.400070,143.647186,181
887.290100,335.731415,-1199.040771,420.000000,228.888885,-80.000000,41.022053,-36.891846,179.838989,182
803.357300,239.808136,-1139.088623,428.888885,224.444443,-87.500000,23.241163,-75.533775,212.670639,183
743.405273,95.923256,-1031.175049,431.111115,213.333328,-85.000000,0.840042,-113.615685,239.271973,184
707.434021,11.990407,-983.213379,437.777771,211.111115,-95.000000,-25.551277,-156.037796,263.213165,185
575.539551,-107.913666,-971.222961,444.444458,200.000000,-97.500000,-59.572979,-207.700394,285.824280,186
383.693024,-215.827332,-983.213379,464.444458,182.222229,-120.000000,-94.574730,-264.683228,307.735382,187
275.779358,-179.856110,-995.203796,464.444458,157.777771,-127.500000,-122.786140,-315.505768,327.266357,188
23.980814,-239.808136,-719.424438,473.333344,151.111115,-142.500000,-144.627228,-357.647888,344.837250,189
-251.798553,-287.769775,-479.616272,480.000000,135.555557,-155.000000,-162.828140,-390.269531,356.247803,190
-983.213379,-695.443604,143.884888,488.888885,117.777779,-175.000000,-190.969543,-421.701080,361.918091,191
-1330.935181,-1019.184631,515.587524,488.888885,93.333336,-187.500000,-239.481979,-469.023468,356.387817,192
-2110.311768,-1966.426758,1438.848877,497.777771,77.777779,-205.000000,-271.333557,-499.194977,329.156464,193
-2242.206055,-2338.129395,2026.378784,491.111115,62.222221,-227.500000,-357.227875,-563.668213,304.165222,194
-2086.330811,-2949.640137,3021.582520,488.888885,31.111111,-280.000000,-459.012970,-628.351440,243.892197,195
-2002.397949,-2985.611328,3093.525146,480.000000,4.444445,-300.000000,-516.765869,-665.173279,187.749390,196
-1582.733765,-2709.832031,3285.371582,477.777771,-8.888889,-325.000000,-508.435425,-660.553040,158.487930,197
-1414.868042,-2446.042969,3129.496338,457.777771,-33.333332,-347.500000,-455.092773,-618.760925,162.968155,198
-983.213379,-1630.695313,2637.889648,451.111115,-53.333332,-367.500000,-392.509644,-575.078735,194.959747,199
-863.309326,-1318.944824,2398.081543,437.777771,-73.333336,-377.500000,-337.626892,-520.056030,229.611481,200
-527.577942,-815.347656,2062.350098,437.777771,-88.888885,-392.500000,-305.145264,-475.533783,258.662933,201
-323.740997,-659.472412,2014.388428,428.888885,-115.555557,-402.500000,-294.014709,-444.802246,270.843536,202
-95.923256,-335.731415,2038.369263,417.777771,-137.777771,-410.000000,-295.484772,-433.251678,265.383270,203
-119.904068,-179.856110,2110.311768,402.222229,-180.000000,-427.500000,-302.205109,-439.551971,259.923004,204
-191.846512,-263.788971,2805.755371,384.444458,-195.555557,-440.000000,-324.886261,-456.282806,272.173615,205
-179.856110,-611.510742,3273.381104,373.333344,-222.222229,-437.500000,-344.487213,-464.613251,281.764099,206
191.846512,-1007.194214,4076.738525,360.000000,-240.000000,-450.000000,-397.409882,-474.763733,290.724548,207
287.769775,-1031.175049,4136.690430,337.777771,-264.444458,-455.000000,-451.872589,-479.383972,286.944336,208
623.501160,-1007.194214,4436.450684,322.222229,-280.000000,-465.000000,-481.904114,-463.563171,291.354584,209
611.510742,-1019.184631,4520.383301,297.777771,-306.666656,-465.000000,-480.014008,-419.811005,319.355957,210
431.654663,-1031.175049,4556.354492,275.555542,-326.666656,-472.500000,-463.633179,-369.968506,366.258331,211
251.798553,-1031.175049,4472.421875,226.666672,-362.222229,-475.000000,-446.342316,-318.095917,414.560730,212
-191.846512,-1103.117432,4100.719238,204.444443,-373.333344,-480.000000,-434.091705,-271.543579,454.742737,213
-395.683441,-1151.079102,3944.843994,175.555557,-391.111115,-477.500000,-419.740997,-227.091354,476.023804,214
-743.405273,-935.251770,3405.275635,151.111115,-400.000000,-482.500000,-409.380463,-184.739243,478.893951,215
-863.309326,-659.472412,3093.525146,120.000000,-411.111115,-480.000000,-404.620239,-139.446976,470.073517,216
-1223.021484,-431.654663,2398.081543,95.555557,-408.888885,-485.000000,-404.620239,-106.965347,459.642975,217
-1390.887207,-467.625885,2170.263672,68.888885,-420.000000,-480.000000,-407.280365,-98.144905,451.662598,218
-1582.733765,-431.654663,1870.503540,40.000000,-420.000000,-480.000000,-415.400787,-82.744141,430.381531,219
-1546.762573,-395.683441,1894.484375,17.777779,-420.000000,-475.000000,-417.220856,-53.202660,410.080505,220
-1462.829712,-215.827332,1678.656982,-31.111111,-417.777771,-477.500000,-409.660492,-11.550578,398.599945,221
-1366.906372,-179.856110,1606.714600,-62.222221,-413.333344,-467.500000,-396.359833,41.722088,397.059845,222
-1103.117432,-143.884888,1438.848877,-82.222221,-397.777771,-472.500000,-385.299255,84.214211,398.249908,223
-1019.184631,-11.990407,1390.887207,-111.111115,-400.000000,-465.000000,-381.729095,108.435425,402.240112,224
-935.251770,191.846512,1270.983154,-126.666664,-382.222229,-465.000000,-383.269165,132.446625,404.970245,225
-935.251770,227.817734,1247.002319,-153.333328,-375.555542,-457.500000,-392.509644,157.087860,402.170105,226
-1294.963989,287.769775,1175.059937,-175.555557,-360.000000,-460.000000,-408.610443,175.008759,394.889740,227
-1570.743286,275.779358,1139.088623,-200.000000,-346.666656,-452.500000,-432.061615,187.609375,380.819031,228
-2350.119873,263.788971,1390.887207,-240.000000,-313.333344,-445.000000,-452.082611,206.580338,358.627930,229
-2745.803223,227.817734,1522.781738,-262.222229,-306.666656,-430.000000,-456.912842,221.001053,334.406738,230
-3669.064697,0.000000,1534.772095,-280.000000,-284.444458,-427.500000,-451.942596,264.473236,318.865936,231
-3681.054932,47.961628,1378.896851,-300.000000,-277.777771,-412.500000,-413.020660,308.435425,274.413727,232
-4244.604004,239.808136,959.232544,-311.111115,-251.111115,-410.000000,-360.378021,365.558289,230.171509,233
-4400.479492,467.625885,563.549133,-322.222229,-240.000000,-402.500000,-295.694794,450.402527,182.849152,234
-4436.450684,695.443604,-455.635468,-333.333344,-211.111115,-407.500000,-239.551987,525.586304,151.977600,235
-4256.594727,767.386047,-911.270935,-340.000000,-197.777771,-397.500000,-200.840042,561.498108,131.326569,236
-3812.949463,743.405273,-1678.656982,-351.111115,-175.555557,-395.000000,-166.188309,555.897827,112.775642,237
-3573.141357,731.414856,-1750.599487,-357.777771,-146.666672,-390.000000,-137.136856,521.316101,92.404625,238
-3141.486572,647.481995,-1846.522705,-360.000000,-126.666664,-390.000000,-125.026253,472.663635,61.953098,239
-2997.601807,551.558716,-1738.609009,-371.111115,-117.777779,-382.500000,-137.066849,420.091003,21.701086,240
-2757.793701,383.693024,-1510.791260,-371.111115,-106.666664,-380.000000,-157.577881,369.268463,-25.551277,241
-2685.851318,287.769775,-1366.906372,-380.000000,-111.111115,-367.500000,-160.448029,326.776337,-69.163460,242
-2517.985596,311.750580,-1103.117432,-382.222229,-95.555557,-370.000000,-153.307663,311.375580,-88.204414,243
-2446.042969,359.712219,-1103.117432,-391.111115,-97.777779,-357.500000,-132.516632,291.494568,-115.715790,244
-2206.234863,503.597107,-1079.136597,-391.111115,-93.333336,-357.500000,-117.955902,270.843536,-135.456772,245
-2134.292480,491.606689,-1103.117432,-404.444458,-97.777779,-345.000000,-118.865944,239.131958,-154.917755,246
-2134.292480,479.616272,-1103.117432,-404.444458,-97.777779,-350.000000,-126.776337,200.770035,-178.438919,247
-2170.263672,467.625885,-1175.059937,-413.333344,-106.666664,-340.000000,-132.516632,160.238007,-203.010147,248
-2278.177246,407.673828,-1342.925659,-411.111115,-108.888885,-337.500000,-137.626877,111.935600,-227.231369,249
-2374.100586,359.712219,-1594.724121,-422.222229,-126.666664,-332.500000,-136.856842,52.502625,-256.072815,250
-2470.023926,335.731415,-1870.503540,-420.000000,-128.888885,-327.500000,-139.096954,0.980049,-276.933838,251
-2470.023926,323.740997,-2038.369263,-431.111115,-144.444443,-322.500000,-127.686386,-16.100805,-294.364716,252
-2446.042969,359.712219,-2206.234863,-431.111115,-155.555557,-320.000000,-107.875397,-43.752190,-325.726288,253
-2374.100586,515.587524,-2302.158203,-433.333344,-173.333328,-315.000000,-87.014351,-97.234863,-364.018219,254
-1966.426758,887.290100,-2374.100586,-431.111115,-206.666672,-310.000000,-76.513824,-128.946442,-382.639130,255
-1834.532349,983.213379,-2398.081543,-426.666656,-231.111115,-302.500000,-58.172909,-193.279663,-415.750793,256
-1318.944824,1438.848877,-2206.234863,-422.222229,-253.333328,-305.000000,-44.242214,-256.282806,-443.892212,257
-1067.146240,1702.637817,-2146.282959,-420.000000,-286.666656,-295.000000,-33.881695,-312.145599,-467.903412,258
-551.558716,2206.234863,-1966.426758,-406.666656,-302.222229,-290.000000,-23.381168,-365.908295,-490.934540,259
-311.750580,2482.014160,-1906.474731,-402.222229,-331.111115,-280.000000,-7.560378,-417.360870,-512.495605,260
-167.865707,3117.505859,-2014.388428,-386.666656,-353.333344,-275.000000,19.950998,-481.974091,-527.896423,261
-59.952034,3249.400391,-1930.455566,-373.333344,-382.222229,-265.000000,73.083656,-544.697266,-521.946106,262
-23.980814,3549.160400,-1678.656982,-342.222229,-428.888885,-247.500000,143.927200,-592.089600,-529.296448,263
-251.798553,3752.997559,-1330.935181,-324.444458,-460.000000,-232.500000,225.831299,-626.111328,-555.337769,264
-1270.983154,3717.026123,455.635468,-304.444458,-477.777771,-232.500000,305.145264,-636.261841,-578.718933,265
-1570.743286,3393.285156,1810.551514,-284.444458,-504.444458,-222.500000,342.947144,-623.521179,-590.619507,266
-1103.117432,2997.601807,3980.815186,-260.000000,-517.777771,-215.000000,341.057068,-613.510681,-606.860352,267
-863.309326,3057.553711,4148.680664,-237.777771,-540.000000,-197.500000,300.665039,-580.749023,-618.760925,268
479.616272,3525.179688,4532.374023,-208.888885,-551.111084,-195.000000,252.222610,-504.935242,-643.892212,269
1079.136597,3741.007080,4316.546387,-186.666672,-568.888916,-182.500000,236.401825,-388.659424,-644.312195,270
2014.388428,3764.987793,3741.007080,-162.222229,-577.777771,-182.500000,258.592926,-280.364014,-610.220520,271
2098.321289,3693.045410,3489.208496,-113.333336,-597.777771,-180.000000,281.064056,-208.890442,-556.947876,272
1630.695313,3549.160400,2757.793701,-91.111115,-602.222229,-182.500000,264.123199,-177.388870,-513.685669,273
1294.963989,3525.179688,2350.119873,-71.111115,-608.888916,-175.000000,203.990204,-178.158905,-486.594330,274
671.462830,3453.237305,1630.695313,-46.666668,-608.888916,-177.500000,128.036407,-199.299973,-474.553741,275
323.740997,3369.304443,1354.916016,-33.333332,-620.000000,-167.500000,51.592579,-235.911804,-482.674133,276
-383.693024,3261.390625,1055.155884,-6.666667,-617.777771,-165.000000,-13.790689,-262.863159,-508.995453,277
-503.597107,3357.313965,1115.107910,11.111111,-626.666687,-152.500000,-31.081554,-266.783356,-538.046936,278
-815.347656,3621.103027,1438.848877,40.000000,-624.444458,-142.500000,19.810991,-260.833038,-555.197754,279
-887.290100,3621.103027,1546.762573,86.666664,-628.888916,-125.000000,61.323067,-223.311172,-560.168030,280
-1270.983154,3645.083740,1774.580200,120.000000,-626.666687,-122.500000,145.187256,-188.169403,-568.778442,281
-1366.906372,3705.035889,1978.417236,135.555557,-624.444458,-112.500000,205.740295,-161.148056,-582.429138,282
-1510.791260,3932.853516,2470.023926,171.111115,-613.333313,-110.000000,236.401825,-134.126709,-600.140015,283
-1390.887207,4016.786377,2685.851318,191.111115,-608.888916,-100.000000,228.981445,-116.135811,-622.611145,284
-863.309326,4388.489258,3237.409912,226.666672,-593.333313,-95.000000,179.838989,-118.305916,-653.272644,285
-551.558716,4652.277832,3345.323486,246.666672,-591.111084,-80.000000,134.056702,-96.814842,-678.823975,286
95.923256,4988.009277,3501.198975,273.333344,-571.111084,-75.000000,108.715439,-47.952396,-677.423889,287
263.788971,4988.009277,3573.141357,302.222229,-555.555542,-72.500000,94.434723,5.740287,-648.232422,288
551.558716,4724.220215,3836.930176,344.444458,-526.666687,-70.000000,65.873291,43.192162,-608.820435,289
695.443604,4640.287598,4028.776855,360.000000,-524.444458,-65.000000,12.320616,54.602730,-568.848450,290
983.213379,4388.489258,4220.623535,377.777771,-504.444458,-70.000000,-45.642284,67.763390,-523.066162,291
1115.107910,4340.527344,4208.632813,386.666656,-495.555542,-67.500000,-67.973396,82.534126,-496.534821,292
1486.810547,4292.565918,4124.700195,404.444458,-480.000000,-77.500000,-95.834793,127.056351,-441.582092,293
1510.791260,4196.642578,3968.824707,415.555542,-471.111115,-85.000000,-104.725235,192.369614,-389.219452,294
1342.925659,3836.930176,3525.179688,424.444458,-453.333344,-90.000000,-121.036057,250.262512,-345.747284,295
1127.098267,3752.997559,3345.323486,435.555542,-448.888885,-100.000000,-151.697586,291.214569,-312.005615,296
959.232544,3597.122070,2901.678467,451.111115,-426.666656,-130.000000,-183.269165,330.486542,-281.274078,297
935.251770,3549.160400,2697.841553,451.111115,-426.666656,-135.000000,-203.430176,365.768280,-252.432617,298
959.232544,3381.294922,2182.254150,457.777771,-408.888885,-155.000000,-207.000351,402.380127,-225.621277,299
923.261353,3345.323486,1930.455566,462.222229,-408.888885,-165.000000,-196.919846,444.312225,-201.400070,300
983.213379,3117.505859,1606.714600,466.666656,-393.333344,-185.000000,-175.638779,486.734344,-177.318863,301
947.242188,3117.505859,1750.599487,471.111115,-382.222229,-197.500000,-145.187256,524.956238,-155.197769,302
1294.963989,2517.985596,1390.887207,475.555542,-364.444458,-212.500000,-122.996155,561.708069,-145.047256,303
1306.954346,2661.870361,1450.839233,477.777771,-353.333344,-222.500000,-118.095909,574.308716,-117.745888,304
1438.848877,2422.062256,1774.580200,477.777771,-346.666656,-237.500000,-106.125305,606.790344,-106.825340,305
1366.906372,2434.052734,1774.580200,480.000000,-326.666656,-255.000000,-79.873993,637.381897,-70.843544,306
1342.925659,2446.042969,1750.599487,484.444458,-308.888885,-272.500000,-53.202660,674.203735,-34.581730,307
1342.925659,2434.052734,1558.752930,484.444458,-297.777771,-277.500000,-41.232063,719.705994,-2.310116,308
1151.079102,2470.023926,815.347656,484.444458,-277.777771,-295.000000,-40.112007,748.897461,31.921597,309
1127.098267,2422.062256,467.625885,482.222229,-275.555542,-295.000000,-29.331467,768.078430,63.843193,310
983.213379,2374.100586,-311.750580,488.888885,-253.333328,-307.500000,-4.620231,783.619202,89.534477,311
983.213379,2326.138916,-599.520386,486.666656,-246.666672,-310.000000,24.291214,784.949280,106.685333,312
959.232544,2038.369263,-1127.098267,488.888885,-228.888885,-317.500000,40.672035,767.378357,113.405670,313
851.318909,1930.455566,-1318.944824,491.111115,-213.333328,-320.000000,35.841793,719.145935,105.005249,314
623.501160,1726.618652,-1630.695313,493.333344,-195.555557,-325.000000,19.390970,661.043030,88.344421,315
611.510742,1546.762573,-1678.656982,493.333344,-191.111115,-325.000000,-0.910046,631.781616,70.703537,316
647.481995,1390.887207,-1726.618652,493.333344,-175.555557,-330.000000,-11.970598,565.348267,61.673084,317
599.520386,1378.896851,-1726.618652,491.111115,-175.555557,-325.000000,-28.421421,496.114807,44.592232,318
575.539551,1175.059937,-1582.733765,500.000000,-160.000000,-330.000000,-28.001400,447.952393,39.481976,319
599.520386,1103.117432,-1654.676147,493.333344,-157.777771,-330.000000,-16.520826,406.020294,30.941547,320
479.616272,1151.079102,-1774.580200,495.555542,-146.666672,-330.000000,-0.070004,372.278625,26.111305,321
371.702637,1067.146240,-1834.532349,500.000000,-142.222229,-332.500000,24.221210,351.907593,25.971298,322
119.904068,935.251770,-2062.350098,506.666656,-128.888885,-330.000000,50.752537,329.506470,28.701435,323
71.942444,839.328491,-2206.234863,504.444458,-131.111115,-315.000000,86.524330,303.045166,43.122158,324
-47.961628,983.213379,-2517.985596,511.111115,-122.222221,-317.500000,135.596786,274.973755,60.553028,325
95.923256,707.434021,-2517.985596,513.333313,-126.666664,-305.000000,186.839340,240.392029,71.123558,326
359.712219,935.251770,-2637.889648,517.777771,-120.000000,-297.500000,227.861389,199.719986,66.993347,327
563.549133,779.376465,-2374.100586,520.000000,-124.444443,-285.000000,257.612885,144.557236,85.124260,328
215.827332,1055.155884,-2254.196533,531.111084,-122.222221,-275.000000,267.833405,118.515930,85.054253,329
227.817734,875.299744,-2194.244629,535.555542,-128.888885,-262.500000,269.513489,101.225060,81.974098,330
671.462830,791.366882,-2086.330811,546.666687,-131.111115,-242.500000,254.602737,80.084007,84.564232,331
959.232544,971.222961,-2002.397949,546.666687,-140.000000,-227.500000,243.682190,44.802242,89.464478,332
1318.944824,1294.963989,-1798.561035,553.333313,-142.222229,-222.500000,247.042358,7.000350,101.505074,333
1354.916016,1390.887207,-1498.800903,553.333313,-155.555557,-210.000000,257.402863,-35.141758,126.356316,334
1151.079102,1534.772095,-983.213379,555.555542,-160.000000,-202.500000,262.373108,-58.802940,158.277908,335
971.222961,1618.704956,-851.318909,555.555542,-175.555557,-182.500000,260.833038,-61.463074,196.219818,336
575.539551,1678.656982,-575.539551,564.444458,-180.000000,-180.000000,257.822906,-57.822891,237.941895,337
443.645050,1702.637817,-539.568298,562.222229,-195.555557,-162.500000,254.252716,-63.773190,284.214203,338
-167.865707,1558.752930,-335.731415,557.777771,-204.444443,-152.500000,247.182358,-78.753937,327.756378,339
-467.625885,1570.743286,-251.798553,546.666687,-248.888885,-132.500000,232.061600,-87.784393,364.578247,340
-959.232544,1534.772095,-239.808136,548.888916,-257.777771,-130.000000,221.071060,-88.134407,383.829193,341
-1294.963989,1570.743286,-179.856110,544.444458,-282.222229,-120.000000,187.329361,-81.274063,384.459229,342
-2086.330811,1534.772095,215.827332,537.777771,-295.555542,-120.000000,136.086807,-74.833740,373.118652,343
-2470.023926,1414.868042,479.616272,528.888916,-315.555542,-112.500000,65.383270,-76.583832,351.767578,344
-3165.467529,1199.040771,1414.868042,524.444458,-322.222229,-115.000000,-25.481274,-89.254463,322.366119,345
-3273.381104,1163.069458,1918.465088,517.777771,-344.444458,-117.500000,-124.536224,-101.085052,284.914246,346
-3429.256348,1079.136597,3021.582520,508.888885,-351.111115,-125.000000,-198.739944,-101.295067,243.122162,347
-3489.208496,1007.194214,3465.227783,491.111115,-373.333344,-137.500000,-228.561432,-78.053902,207.910400,348
-3597.122070,839.328491,4292.565918,488.888885,-377.777771,-150.000000,-206.720337,-27.651382,182.219116,349
-3477.218018,851.318909,4412.469727,475.555542,-386.666656,-150.000000,-146.377319,45.922298,165.558273,350
-3285.371582,959.232544,4484.412109,473.333344,-386.666656,-162.500000,-73.083656,133.356674,149.317474,351
-3177.458008,1043.165405,4460.431641,464.444458,-397.777771,-165.000000,-7.700385,221.211060,132.026596,352
-2901.678467,1127.098267,4340.527344,462.222229,-393.333344,-172.500000,35.771790,262.513123,110.115509,353
-2805.755371,1247.002319,4208.632813,453.333344,-400.000000,-172.500000,47.882393,333.916687,98.774940,354
-2565.947021,1378.896851,3824.939941,451.111115,-393.333344,-180.000000,63.003151,396.149811,83.234161,355
-2134.292480,1726.618652,3237.409912,446.666656,-395.555542,-185.000000,73.083656,445.222260,75.393768,356
-1750.599487,1966.426758,3021.582520,440.000000,-377.777771,-202.500000,83.584183,488.204407,77.703888,357
-1151.079102,2374.100586,2182.254150,431.111115,-386.666656,-202.500000,91.914597,530.556519,91.284569,358
-1043.165405,2434.052734,1666.666626,433.333344,-382.222229,-217.500000,84.284218,550.297546,111.655586,359
-911.270935,2326.138916,839.328491,420.000000,-380.000000,-220.000000,55.582779,545.047241,131.256561,360
-875.299744,2254.196533,695.443604,420.000000,-366.666656,-235.000000,13.020651,521.526062,144.277222,361
-983.213379,1918.465088,791.366882,413.333344,-368.888885,-232.500000,-39.761990,490.934540,150.717545,362
-1151.079102,1726.618652,995.203796,402.222229,-355.555542,-255.000000,-100.035004,462.513123,146.937347,363
-1414.868042,1462.829712,1822.541870,393.333344,-357.777771,-257.500000,-166.048309,441.862091,130.276520,364
-1558.752930,1438.848877,1954.436401,373.333344,-335.555542,-282.500000,-230.451523,442.142120,114.735741,365
-1726.618652,1247.002319,2398.081543,360.000000,-335.555542,-297.500000,-255.582779,451.522583,111.235565,366
-1774.580200,1247.002319,2733.812744,355.555542,-315.555542,-320.000000,-285.124268,477.983917,106.475327,367
-1918.465088,1318.944824,3093.525146,335.555542,-311.111115,-322.500000,-288.764435,524.606262,100.595032,368
-2062.350098,2050.359619,3405.275635,333.333344,-286.666656,-337.500000,-260.623047,576.128784,94.364716,369
-2206.234863,1199.040771,3069.544189,320.000000,-277.777771,-347.500000,-201.750092,661.953125,78.403923,370
-2374.100586,1738.609009,3045.563477,315.555542,-248.888885,-357.500000,-202.660141,739.656982,75.533775,371
-2398.081543,2302.158203,2350.119873,308.888885,-231.111115,-360.000000,-176.968857,799.929993,76.793839,372
-2362.110107,2505.995117,2002.397949,306.666656,-206.666672,-367.500000,-151.417572,859.432983,73.153656,373
-2398.081543,2422.062256,1726.618652,304.444458,-157.777771,-375.000000,-137.486877,871.613586,72.733635,374
-2410.071777,2398.081543,1606.714600,306.666656,-128.888885,-382.500000,-147.217361,850.122498,51.522575,375
-2709.832031,2541.966309,1223.021484,304.444458,-113.333336,-382.500000,-175.218765,824.571228,18.620932,376
-2793.764893,2541.966309,1103.117432,308.888885,-75.555557,-395.000000,-197.759888,821.981079,-17.080854,377
-3237.409912,2494.004639,383.693024,308.888885,-57.777779,-390.000000,-203.780197,820.651062,-35.841793,378
-3357.313965,2374.100586,59.952034,313.333344,-24.444445,-395.000000,-206.650330,807.560364,-41.372070,379
-3405.275635,2134.292480,-695.443604,317.777771,-2.222222,-395.000000,-196.919846,778.858948,-45.852295,380
-3441.246826,2002.397949,-1031.175049,315.555542,31.111111,-402.500000,-178.438919,738.046936,-48.652431,381
-3261.390625,1702.637817,-1366.906372,313.333344,86.666664,-395.000000,-165.348267,681.414063,-54.532726,382
-3249.400391,1570.743286,-1438.848877,317.777771,122.222221,-400.000000,-166.608337,616.520813,-63.003151,383
-3093.525146,1486.810547,-1702.637817,306.666656,144.444443,-385.000000,-175.638779,564.928223,-77.003853,384
-3081.534668,1318.944824,-1774.580200,306.666656,182.222229,-387.500000,-188.869446,521.806091,-96.464821,385
-3165.467529,1079.136597,-1894.484375,293.333344,197.777771,-370.000000,-206.230316,478.823944,-115.435776,386
-3261.390625,899.280518,-1822.541870,286.666656,231.111115,-362.500000,-231.361572,432.201630,-131.046555,387
-3477.218018,383.693024,-1630.695313,271.111115,244.444443,-345.000000,-272.173615,375.218750,-155.617783,388
-3465.227783,383.693024,-1570.743286,268.888885,264.444458,-337.500000,-329.716492,329.156464,-193.489670,389
-3525.179688,311.750580,-1366.906372,248.888885,284.444458,-320.000000,-388.029419,313.965698,-238.781937,390
-3489.208496,383.693024,-1258.992798,222.222229,306.666656,-302.500000,-410.010498,291.144562,-258.032898,391
-3405.275635,455.635468,-1151.079102,197.777771,308.888885,-287.500000,-441.512085,290.654541,-288.764435,392
-3417.266113,527.577942,-1091.127075,188.888885,320.000000,-280.000000,-471.053558,298.984955,-315.995789,393
-3357.313965,791.366882,-1151.079102,166.666672,320.000000,-272.500000,-498.774933,299.684998,-334.686737,394
-2757.793701,-215.827332,-1270.983154,153.333328,331.111115,-267.500000,-501.015045,291.914612,-339.867004,395
-3621.103027,1750.599487,-1534.772095,133.333328,324.444458,-255.000000,-488.484436,281.274078,-405.880310,396
-3429.256348,1462.829712,-1558.752930,117.777779,335.555542,-257.500000,-390.129517,279.663971,-319.215973,397
-3477.218018,623.501160,-1247.002319,106.666664,333.333344,-247.500000,-307.455383,268.673431,-254.462723,398
-3693.045410,647.481995,-1211.031128,86.666664,340.000000,-240.000000,-253.552673,263.913208,-239.901993,399
-4004.795898,527.577942,-1103.117432,80.000000,337.777771,-232.500000,-195.169754,256.702850,-224.711243,400
-4052.757568,491.606689,-1079.136597,73.333336,342.222229,-232.500000,-141.057053,254.252716,-223.031158,401
-4100.719238,431.654663,-887.290100,62.222221,342.222229,-220.000000,-104.585228,251.802597,-233.321671,402
-4148.680664,395.683441,-803.357300,55.555557,346.666656,-225.000000,-96.464821,245.992310,-243.542175,403
-4244.604004,239.808136,-575.539551,40.000000,348.888885,-215.000000,-100.245010,228.071411,-275.673798,404
-4280.575195,239.808136,-515.587524,28.888889,357.777771,-215.000000,-123.486176,206.160309,-315.925812,405
-4172.661621,287.769775,-455.635468,17.777779,357.777771,-207.500000,-153.377670,186.629333,-361.778107,406
-4064.748047,335.731415,-491.606689,-2.222222,360.000000,-207.500000,-186.769333,171.088562,-408.750427,407
-3860.911133,407.673828,-599.520386,-46.666668,357.777771,-200.000000,-222.821136,161.008057,-450.472534,408
-3705.035889,371.702637,-491.606689,-68.888885,357.777771,-205.000000,-263.633179,152.047607,-490.024506,409
-3597.122070,671.462830,-623.501160,-97.777779,351.111115,-192.500000,-320.056000,136.436829,-543.367188,410
-3441.246826,719.424438,-839.328491,-117.777779,355.555542,-187.500000,-339.096954,133.916702,-571.788574,411
-3237.409912,743.405273,-1055.155884,-155.555557,344.444458,-177.500000,-339.026947,133.426666,-590.059509,412
-3249.400391,779.376465,-1043.165405,-177.777771,342.222229,-177.500000,-353.307678,123.346169,-613.300659,413
-3069.544189,935.251770,-1199.040771,-204.444443,326.666656,-162.500000,-377.948914,110.325516,-638.851929,414
-2937.649658,971.222961,-1270.983154,-237.777771,317.777771,-157.500000,-387.329376,105.425270,-657.542908,415
-2805.755371,1079.136597,-1558.752930,-291.111115,286.666656,-135.000000,-401.190063,91.774590,-664.403198,416
-2685.851318,1175.059937,-1714.628174,-315.555542,275.555542,-127.500000,-409.380463,70.493523,-673.573669,417
-2422.062256,1294.963989,-1990.407593,-346.666656,251.111115,-115.000000,-400.980042,47.392368,-670.843567,418
-2386.091064,1270.983154,-2074.340332,-364.444458,237.777771,-105.000000,-388.799438,22.401121,-658.172913,419
-2182.254150,1247.002319,-2302.158203,-391.111115,211.111115,-87.500000,-379.208954,-11.060554,-645.012268,420
-2050.359619,1127.098267,-2290.167725,-411.111115,195.555557,-82.500000,-371.718597,-42.912148,-630.241516,421
-1918.465088,1103.117432,-2446.042969,-428.888885,168.888885,-72.500000,-358.977966,-62.863144,-620.301025,422
-1882.493896,1019.184631,-2362.110107,-446.666656,148.888885,-62.500000,-326.566345,-65.453270,-607.140381,423
-1822.541870,671.462830,-2110.311768,-457.777771,128.888885,-52.500000,-289.394470,-67.973396,-596.499817,424
-1810.551514,611.510742,-2086.330811,-480.000000,77.777779,-37.500000,-262.443115,-84.634232,-595.449768,425
-1678.656982,503.597107,-1918.465088,-488.888885,42.222221,-27.500000,-241.302063,-103.115158,-600.630066,426
-1510.791260,539.568298,-1810.551514,-497.777771,22.222221,-25.000000,-215.190765,-104.375221,-609.660461,427
-1294.963989,815.347656,-1798.561035,-506.666656,-8.888889,-10.000000,-206.090302,-91.984604,-613.790710,428
-1115.107910,899.280518,-1822.541870,-508.888885,-31.111111,-10.000000,-165.978302,-56.772839,-611.620605,429
-695.443604,959.232544,-1990.407593,-517.777771,-64.444443,-2.500000,-134.686737,-43.682186,-605.250244,430
-587.529968,1055.155884,-2122.302002,-517.777771,-84.444443,0.000000,-121.526077,-68.743439,-598.319946,431
-191.846512,1318.944824,-2350.119873,-515.555542,-113.333336,7.500000,-114.805740,-115.505775,-584.389221,432
35.971222,1378.896851,-2505.995117,-517.777771,-157.777771,12.500000,-104.165207,-163.318161,-567.308350,433
575.539551,1534.772095,-2661.870361,-515.555542,-191.111115,20.000000,-94.574730,-198.809937,-554.777771,434
815.347656,1618.704956,-2661.870361,-506.666656,-206.666672,22.500000,-93.384666,-229.051453,-546.797363,435
1366.906372,1630.695313,-2661.870361,-500.000000,-237.777771,32.500000,-101.995102,-252.992645,-535.946777,436
1438.848877,1594.724121,-2685.851318,-497.777771,-253.333328,35.000000,-130.416519,-284.634247,-535.386780,437
1726.618652,1606.714600,-2685.851318,-491.111115,-277.777771,45.000000,-168.638428,-314.945740,-532.656616,438
1822.541870,1426.858398,-2673.860840,-480.000000,-300.000000,55.000000,-202.170105,-334.896759,-529.506470,439
1750.599487,1318.944824,-2565.947021,-468.888885,-311.111115,75.000000,-204.200211,-339.376984,-529.506470,440
1594.724121,1187.050293,-2625.899170,-460.000000,-335.555542,82.500000,-168.008408,-318.865936,-506.755341,441
1534.772095,959.232544,-2565.947021,-442.222229,-364.444458,100.000000,-77.213860,-259.292969,-472.033600,442
1414.868042,731.414856,-2577.937500,-428.888885,-373.333344,97.500000,28.631432,-191.879593,-438.641937,443
1007.194214,335.731415,-2422.062256,-422.222229,-400.000000,100.000000,99.404968,-144.837250,-418.270905,444
863.309326,311.750580,-2446.042969,-411.111115,-402.222229,95.000000,118.305916,-128.736435,-418.270905,445
647.481995,287.769775,-2374.100586,-400.000000,-424.444458,100.000000,105.005249,-139.026947,-427.301361,446
527.577942,275.779358,-2350.119873,-388.888885,-428.888885,92.500000,75.323769,-172.278610,-442.842133,447
359.712219,191.846512,-2182.254150,-377.777771,-451.111115,105.000000,36.191811,-214.630737,-461.393066,448
395.683441,263.788971,-2074.340332,-362.222229,-457.777771,105.000000,-12.880644,-262.513123,-479.803986,449
0.000000,287.769775,-2182.254150,-351.111115,-480.000000,127.500000,-58.032902,-302.345123,-500.245026,450
-35.971222,455.635468,-1882.493896,-320.000000,-491.111115,132.500000,-61.043053,-300.665039,-518.865967,451
47.961628,815.347656,-1558.752930,-304.444458,-504.444458,150.000000,-59.222961,-293.594696,-531.326599,452
-47.961628,851.318909,-1438.848877,-280.000000,-506.666656,155.000000,-52.012600,-285.684296,-537.976929,453
-191.846512,911.270935,-1175.059937,-266.666656,-520.000000,167.500000,-47.812389,-279.243958,-553.657715,454
-179.856110,899.280518,-1031.175049,-237.777771,-524.444458,172.500000,-38.431923,-262.163116,-571.298584,455
-215.827332,1318.944824,-911.270935,-222.222229,-535.555542,185.000000,-3.500175,-235.701782,-592.299622,456
-239.808136,1414.868042,-923.261353,-202.222229,-535.555542,187.500000,43.752190,-198.739944,-615.330750,457
-335.731415,1630.695313,-959.232544,-182.222229,-546.666687,195.000000,91.074554,-162.478119,-629.681519,458
-347.721802,1738.609009,-935.251770,-142.222229,-551.111084,195.000000,124.396217,-131.816589,-636.401855,459
47.961628,2086.330811,-647.481995,-126.666664,-564.444458,200.000000,144.697235,-110.115509,-643.472168,460
119.904068,2122.302002,-563.549133,-104.444443,-562.222229,197.500000,173.048660,-89.044456,-648.372437,461
359.712219,2398.081543,-119.904068,-86.666664,-573.333313,197.500000,222.751144,-56.282814,-649.002441,462
371.702637,2470.023926,107.913666,-66.666664,-568.888916,195.000000,266.433319,-17.850893,-645.222290,463
383.693024,2589.927979,335.731415,-51.111111,-580.000000,197.500000,291.774597,0.980049,-636.611816,464
335.731415,2529.975830,251.798553,-40.000000,-575.555542,190.000000,297.584869,34.651733,-631.921631,465
143.884888,2422.062256,71.942444,-20.000000,-577.777771,187.500000,300.035004,55.162758,-621.351074,466
-47.961628,2374.100586,-23.980814,-4.444445,-580.000000,177.500000,298.354919,57.192860,-611.900574,467
-455.635468,2158.273193,-167.865707,24.444445,-588.888916,182.500000,303.465179,43.122158,-606.510315,468
-599.520386,2134.292480,-191.846512,42.222221,-584.444458,175.000000,312.495636,27.091354,-610.290527,469
-1055.155884,2062.350098,-335.731415,53.333332,-584.444458,180.000000,329.086456,25.831291,-626.811340,470
-1258.992798,2074.340332,-371.702637,75.555557,-582.222229,177.500000,353.027649,35.421772,-653.622681,471
-1702.637817,2014.388428,-383.693024,88.888885,-584.444458,177.500000,384.039215,49.562477,-684.424255,472
-1786.570679,2038.369263,-359.712219,111.111115,-573.333313,170.000000,417.500885,55.792789,-713.545715,473
-1990.407593,2134.292480,95.923256,124.444443,-573.333313,177.500000,430.171509,53.762688,-736.366821,474
-2002.397949,2218.225342,455.635468,142.222229,-568.888916,170.000000,412.600647,51.102554,-760.098022,475
-1918.465088,2422.062256,1223.021484,175.555557,-564.444458,177.500000,376.828857,61.113056,-789.219482,476
-1714.628174,2613.908691,1534.772095,206.666672,-551.111084,172.500000,358.837952,69.303467,-801.190063,477
-1270.983154,3021.582520,2110.311768,222.222229,-546.666687,177.500000,340.847046,98.704933,-817.640869,478
-1163.069458,3129.496338,2302.158203,246.666672,-533.333313,172.500000,345.397278,147.707382,-818.480957,479
-935.251770,3237.409912,2685.851318,262.222229,-535.555542,177.500000,363.738190,205.390274,-803.080139,480
-851.318909,3189.448242,2805.755371,286.666656,-511.111115,170.000000,375.918793,269.233459,-781.309082,481
-719.424438,3021.582520,3021.582520,300.000000,-511.111115,170.000000,375.358765,332.026611,-756.247803,482
-743.405273,2901.678467,3129.496338,315.555542,-495.555542,167.500000,353.167664,387.259369,-729.506470,483
-719.424438,2494.004639,3333.333252,331.111115,-486.666656,167.500000,302.975159,419.530975,-698.844971,484
-731.414856,2446.042969,3369.304443,362.222229,-466.666656,152.500000,221.771088,425.551270,-675.323792,485
-911.270935,2206.234863,3309.352295,380.000000,-462.222229,152.500000,127.476372,418.900940,-663.003174,486
-971.222961,2206.234863,3309.352295,397.777771,-440.000000,140.000000,57.262863,433.181671,-657.612915,487
-1127.098267,2230.215820,3069.544189,411.111115,-437.777771,135.000000,18.480925,492.264618,-655.932800,488
-1258.992798,2242.206055,2781.774414,424.444458,-415.555542,117.500000,8.540427,525.656311,-658.522949,489
-1558.752930,2278.177246,1990.407593,442.222229,-408.888885,110.000000,-8.680434,579.908997,-659.922974,490
-1618.704956,2338.129395,1642.685791,455.555542,-388.888885,97.500000,-38.991951,612.180603,-665.453308,491
-1630.695313,2494.004639,839.328491,468.888885,-377.777771,82.500000,-79.663986,626.811340,-676.303833,492
-1534.772095,2673.860840,431.654663,497.777771,-333.333344,60.000000,-112.705635,632.691650,-686.804321,493
-1007.194214,2613.908691,-311.750580,506.666656,-320.000000,50.000000,-126.986351,634.161743,-691.354553,494
-875.299744,3213.429199,-611.510742,520.000000,-293.333344,32.500000,-126.216309,620.931030,-684.074219,495
167.865707,2901.678467,-1247.002319,526.666687,-282.222229,27.500000,-134.896744,633.321655,-653.202637,496
275.779358,2901.678467,-1330.935181,537.777771,-253.333328,10.000000,-149.317474,615.400757,-594.259705,497
911.270935,2589.927979,-1390.887207,537.777771,-237.777771,7.500000,-165.068253,572.138611,-539.726990,498
1127.098267,2446.042969,-1318.944824,544.444458,-217.777771,-10.000000,-181.659088,522.366150,-478.683929,499
1366.906372,1846.522705,-959.232544,548.888916,-202.222229,-20.000000,-205.600281,480.434021,-405.530273,500
1342.925659,1642.685791,-767.386047,555.555542,-173.333328,-27.500000,-246.132309,463.213165,-338.746948,501
959.232544,1199.040771,-263.788971,555.555542,-166.666672,-47.500000,-270.353516,432.131622,-309.205475,502
647.481995,959.232544,-11.990407,553.333313,-146.666672,-65.000000,-320.826050,412.950653,-258.312927,503
-167.865707,479.616272,647.481995,551.111084,-148.888885,-77.500000,-369.618500,408.540436,-220.511032,504
-623.501160,359.712219,875.299744,553.333313,-135.555557,-100.000000,-421.001068,414.770752,-204.270218,505
-1558.752930,191.846512,1199.040771,551.111084,-133.333328,-112.500000,-466.853333,437.521881,-195.449768,506
-1822.541870,203.836914,1223.021484,548.888916,-115.555557,-135.000000,-490.654541,465.803284,-186.419327,507
-2254.196533,239.808136,1127.098267,542.222229,-104.444443,-150.000000,-491.284576,499.894989,-183.899200,508
-2302.158203,323.740997,971.222961,537.777771,-93.333336,-167.500000,-478.753937,538.606934,-193.349670,509
-2302.158203,479.616272,695.443604,526.666687,-66.666664,-197.500000,-468.533417,570.038513,-207.840393,510
-2194.244629,671.462830,551.558716,517.777771,-44.444443,-217.500000,-464.893250,597.689880,-215.470779,511
-1846.522705,863.309326,263.788971,511.111115,-35.555557,-227.500000,-474.833740,638.921936,-210.360519,512
-1654.676147,1007.194214,35.971222,506.666656,-13.333333,-245.000000,-503.675201,662.233093,-195.729782,513
-1103.117432,1127.098267,-335.731415,491.111115,-4.444445,-250.000000,-524.396240,660.833069,-186.559326,514
-755.395630,1067.146240,-455.635468,482.222229,20.000000,-265.000000,-564.368225,644.032227,-160.868042,515
-239.808136,863.309326,-431.654663,466.666656,31.111111,-272.500000,-576.968872,618.550964,-125.096252,516
-263.788971,1091.127075,-419.664246,455.555542,51.111111,-287.500000,-559.117981,603.010132,-82.254112,517
-191.846512,239.808136,0.000000,444.444458,73.333336,-297.500000,-531.396545,586.559326,-24.571228,518
-371.702637,431.654663,167.865707,422.222229,88.888885,-312.500000,-509.345459,534.756714,12.110605,519
-743.405273,503.597107,215.827332,408.888885,93.333336,-315.000000,-492.124603,528.946472,43.822193,520
-755.395630,407.673828,239.808136,402.222229,104.444443,-322.500000,-476.233826,555.337769,74.973747,521
-887.290100,191.846512,143.884888,391.111115,111.111115,-322.500000,-472.523621,572.418640,99.544975,522
-863.309326,107.913666,-119.904068,384.444458,126.666664,-330.000000,-486.384338,548.897461,128.946442,523
-791.366882,0.000000,-551.558716,373.333344,133.333328,-325.000000,-519.215942,491.214569,161.218063,524
-779.376465,-131.894485,-719.424438,366.666656,137.777771,-335.000000,-561.078064,421.001068,191.389572,525
-1055.155884,-527.577942,-695.443604,355.555542,142.222229,-342.500000,-583.549194,381.029053,210.150513,526
-1270.983154,-791.366882,-431.654663,335.555542,153.333328,-360.000000,-630.381531,298.004913,214.980759,527
-1774.580200,-1270.983154,167.865707,317.777771,146.666672,-367.500000,-681.764099,218.480927,213.930695,528
-1990.407593,-1510.791260,467.625885,300.000000,153.333328,-387.500000,-741.127075,144.347214,199.369965,529
-2398.081543,-1918.465088,983.213379,275.555542,146.666672,-395.000000,-802.520142,85.194260,171.928604,530
-2458.033447,-1762.589844,1211.031128,257.777771,153.333328,-415.000000,-851.872620,43.892197,139.796997,531
-2637.889648,-3117.505859,1055.155884,231.111115,144.444443,-422.500000,-900.525024,35.981800,140.707031,532
-2745.803223,-3225.419434,1079.136597,202.222229,155.555557,-437.500000,-910.605530,24.501225,58.172909,533
-3021.582520,-3597.122070,551.558716,171.111115,153.333328,-450.000000,-908.015381,6.090304,-36.681835,534
-2937.649658,-3297.362061,287.769775,137.777771,157.777771,-452.500000,-905.495300,-1.260063,-123.976204,535
-2541.966309,-3069.544189,-815.347656,64.444443,162.222229,-462.500000,-895.904785,18.130907,-195.659790,536
-2374.100586,-3021.582520,-1402.877686,31.111111,171.111115,-470.000000,-897.304871,25.621281,-266.153320,537
-1630.695313,-2757.793701,-2589.927979,-13.333333,164.444443,-462.500000,-928.666443,11.620582,-335.456787,538
-1031.175049,-2350.119873,-2985.611328,-48.888889,166.666672,-465.000000,-952.257629,-55.792789,-364.298218,539
263.788971,-1462.829712,-3717.026123,-97.777779,155.555557,-457.500000,-992.229614,-153.027649,-399.859985,540
839.328491,-1258.992798,-3681.054932,-135.555557,146.666672,-460.000000,-988.099426,-249.142456,-395.519775,541
1942.445923,-1103.117432,-3501.198975,-180.000000,126.666664,-442.500000,-932.656616,-316.975861,-367.028351,542
2266.187012,-1055.155884,-3417.266113,-217.777771,111.111115,-435.000000,-845.362305,-352.397614,-320.686035,543
2997.601807,-959.232544,-3069.544189,-271.111115,75.555557,-412.500000,-713.265686,-375.078766,-261.813080,544
3105.515381,-851.318909,-2901.678467,-286.666656,66.666664,-410.000000,-518.725952,-365.418274,-187.609375,545
3429.256348,-767.386047,-2661.870361,-302.222229,44.444443,-405.000000,-271.893585,-311.095551,-104.725235,546
3309.352295,-899.280518,-2517.985596,-300.000000,46.666668,-415.000000,-33.181660,-247.112366,-17.780890,547
2829.736084,-1247.002319,-1918.465088,-300.000000,33.333332,-415.000000,122.226112,-214.420731,52.082603,548
2541.966309,-1522.781738,-1450.839233,-288.888885,35.555557,-427.500000,163.808197,-227.231369,90.654533,549
1822.541870,-1726.618652,-527.577942,-286.666656,17.777779,-430.000000,129.856491,-271.753601,103.185158,550
1366.906372,-1846.522705,83.932854,-282.222229,17.777779,-437.500000,94.994751,-301.015045,102.765137,551
167.865707,-2086.330811,2398.081543,-277.777771,8.888889,-440.000000,-1.120056,-358.697937,80.714035,552
95.923256,-2182.254150,3537.170166,-286.666656,-17.777779,-445.000000,-118.655937,-392.369629,39.761990,553
335.731415,-2014.388428,5059.951660,-297.777771,-37.777779,-435.000000,-230.031509,-373.048645,1.120056,554
623.501160,-1666.666626,4952.038086,-308.888885,-42.222221,-435.000000,-331.466583,-312.425629,-26.531326,555
815.347656,-1414.868042,3956.834473,-326.666656,-57.777779,-420.000000,-405.040253,-203.920197,-35.141758,556
851.318909,-1402.877686,3633.093262,-340.000000,-55.555557,-410.000000,-454.252716,-97.584877,-32.271614,557
983.213379,-1318.944824,2110.311768,-357.777771,-60.000000,-392.500000,-495.204773,-51.172558,-20.371019,558
959.232544,-1247.002319,1558.752930,-368.888885,-62.222221,-382.500000,-536.786865,-49.562477,-1.190060,559
767.386047,-1223.021484,575.539551,-386.666656,-64.444443,-367.500000,-564.718262,-59.922997,19.110956,560
659.472412,-1270.983154,191.846512,-417.777771,-62.222221,-330.000000,-559.817993,-68.743439,38.781940,561
239.808136,-1438.848877,-527.577942,-433.333344,-71.111115,-315.000000,-514.525757,-72.383621,53.272663,562
167.865707,-1498.800903,-731.414856,-442.222229,-66.666664,-297.500000,-479.243958,-71.683586,56.982849,563
-47.961628,-1654.676147,-1270.983154,-451.111115,-64.444443,-285.000000,-386.909363,-54.322716,52.642632,564
-131.894485,-1666.666626,-1450.839233,-455.555542,-64.444443,-277.500000,-283.374176,-36.191811,36.331818,565
-191.846512,-1486.810547,-1630.695313,-462.222229,-68.888885,-270.000000,-185.299271,-35.281765,14.700735,566
-179.856110,-1390.887207,-1522.781738,-464.444458,-64.444443,-270.000000,-88.204414,-41.092056,-6.930346,567
-167.865707,-1175.059937,-1247.002319,-468.888885,-68.888885,-275.000000,3.430171,-51.312565,-25.761288,568
-143.884888,-1103.117432,-1163.069458,-471.111115,-71.111115,-272.500000,82.814140,-63.703186,-40.392021,569
0.000000,-791.366882,-743.405273,-464.444458,-88.888885,-282.500000,145.117264,-78.263916,-51.732586,570
-95.923256,-527.577942,-671.462830,-457.777771,-88.888885,-297.500000,198.739944,-90.234512,-56.702835,571
-191.846512,-575.539551,143.884888,-457.777771,-95.555557,-302.500000,238.781937,-90.934547,-61.393070,572
-203.836914,-467.625885,767.386047,-448.888885,-95.555557,-320.000000,260.063019,-99.124954,-67.273361,573
71.942444,-71.942444,1750.599487,-448.888885,-106.666664,-325.000000,283.724182,-75.393768,-75.953796,574
263.788971,215.827332,1930.455566,-437.777771,-104.444443,-342.500000,301.015045,-42.212112,-72.243614,575
647.481995,503.597107,1870.503540,-431.111115,-113.333336,-350.000000,345.117249,49.632481,-64.403221,576
743.405273,539.568298,1666.666626,-422.222229,-108.888885,-365.000000,387.609375,126.356316,-35.911797,577
719.424438,551.558716,1199.040771,-400.000000,-106.666664,-397.500000,417.430878,169.618484,-3.220161,578
587.529968,455.635468,959.232544,-384.444458,-95.555557,-420.000000,435.841797,196.919846,18.970949,579
191.846512,191.846512,527.577942,-373.333344,-93.333336,-427.500000,435.981812,209.100464,27.301365,580
107.913666,167.865707,455.635468,-357.777771,-77.777779,-442.500000,416.240814,203.780197,28.351418,581
-407.673828,-23.980814,167.865707,-348.888885,-77.777779,-447.500000,385.649292,189.499481,22.401121,582
-683.453186,-179.856110,71.942444,-331.111115,-64.444443,-470.000000,366.398315,171.018555,10.780540,583
-1270.983154,-479.616272,-143.884888,-320.000000,-68.888885,-472.500000,342.947144,148.477432,-8.470424,584
-1462.829712,-647.481995,-311.750580,-304.444458,-57.777779,-480.000000,322.156097,114.805740,-34.441723,585
-1942.445923,-911.270935,-719.424438,-295.555542,-57.777779,-495.000000,327.966400,78.403923,-69.653481,586
-2194.244629,-1091.127075,-899.280518,-268.888885,-55.555557,-510.000000,342.177124,58.032902,-113.195663,587
-2829.736084,-1270.983154,-1366.906372,-262.222229,-62.222221,-517.500000,344.277222,56.142807,-135.736786,588
-3045.563477,-1414.868042,-1618.704956,-246.666672,-60.000000,-530.000000,335.386780,46.552330,-184.949249,589
-3525.179688,-1510.791260,-2326.138916,-237.777771,-75.555557,-532.500000,308.505432,7.350368,-241.582077,590
-3657.074219,-1510.791260,-2517.985596,-226.666672,-73.333336,-545.000000,267.623383,-65.383270,-318.235901,591
-3717.026123,-1127.098267,-2709.832031,-217.777771,-95.555557,-545.000000,223.451172,-149.457474,-395.379761,592
-3681.054932,-1139.088623,-2865.707275,-208.888885,-106.666664,-547.500000,171.788589,-228.211411,-479.523987,593
-3333.333252,-95.923256,-2781.774414,-200.000000,-133.333328,-555.000000,130.416519,-305.775299,-554.357727,594
-3069.544189,179.856110,-2853.716797,-188.888885,-180.000000,-557.500000,92.824646,-361.778107,-595.029785,595
-2134.292480,911.270935,-3117.505859,-182.222229,-217.777771,-552.500000,43.402172,-423.521179,-602.240112,596
-1750.599487,1223.021484,-3237.409912,-175.555557,-244.444443,-552.500000,-40.672035,-521.946106,-588.589417,597
-1151.079102,1654.676147,-3285.371582,-177.777771,-286.666656,-542.500000,-138.466919,-637.031860,-554.427734,598
-995.203796,1726.618652,-3213.429199,-171.111115,-324.444458,-532.500000,-219.040955,-723.696167,-524.466248,599
-767.386047,1654.676147,-2949.640137,-175.555557,-364.444458,-515.000000,-245.782288,-752.397644,-513.965698,600
-911.270935,1702.637817,-2841.726563,-168.888885,-397.777771,-495.000000,-275.883789,-788.169434,-507.245361,601
-1223.021484,1846.522705,-2853.716797,-168.888885,-435.555542,-465.000000,-272.383636,-794.259705,-494.434723,602
-1402.877686,1798.561035,-3009.592285,-160.000000,-468.888885,-442.500000,-236.051804,-778.718933,-482.184113,603
-1750.599487,1798.561035,-3165.467529,-144.444443,-535.555542,-392.500000,-193.559677,-772.068604,-480.294006,604
-1822.541870,1762.589844,-3081.534668,-128.888885,-562.222229,-365.000000,-167.168365,-787.889404,-490.444519,605
-1942.445923,2254.196533,-3045.563477,-111.111115,-586.666687,-327.500000,-151.697586,-811.900574,-512.985657,606
-1846.522705,2434.052734,-2877.697754,-91.111115,-611.111084,-302.500000,-113.685684,-817.780884,-540.567017,607
-1774.580200,2757.793701,-2589.927979,-68.888885,-633.333313,-260.000000,-56.352818,-807.210388,-561.638062,608
-1726.618652,2949.640137,-2446.042969,-44.444443,-644.444458,-230.000000,-9.450473,-805.670288,-576.898865,609
-1462.829712,3381.294922,-2062.350098,-15.555555,-660.000000,-190.000000,18.550928,-811.340576,-581.519104,610
-1318.944824,3561.150879,-1810.551514,11.111111,-671.111084,-162.500000,33.671684,-810.710571,-572.208618,611
-1055.155884,3788.968750,-1318.944824,60.000000,-673.333313,-82.500000,39.972000,-805.810303,-555.057739,612
-1019.184631,3788.968750,-1103.117432,84.444443,-664.444458,-52.500000,49.772488,-792.089600,-544.977234,613
-1031.175049,3788.968750,-791.366882,102.222221,-660.000000,-12.500000,58.662933,-773.678711,-526.496338,614
-1007.194214,3741.007080,-755.395630,124.444443,-646.666687,12.500000,65.453270,-751.627563,-507.315369,615
-1007.194214,3669.064697,-623.501160,144.444443,-642.222229,50.000000,63.913197,-736.296814,-483.444183,616
-1115.107910,3693.045410,-611.510742,162.222229,-617.777771,75.000000,55.372768,-733.986694,-458.592926,617
-767.386047,3764.987793,-551.558716,171.111115,-608.888916,110.000000,42.842144,-725.446289,-433.251678,618
-611.510742,3741.007080,-515.587524,184.444443,-591.111084,137.500000,33.181660,-711.305603,-411.970612,619
-479.616272,3741.007080,-599.520386,193.333328,-560.000000,160.000000,29.121456,-697.374878,-390.759552,620
-503.597107,3609.112549,-599.520386,208.888885,-517.777771,202.500000,26.461323,-683.864197,-366.678345,621
-599.520386,3309.352295,-671.462830,211.111115,-504.444458,230.000000,30.311516,-672.873657,-348.617432,622
-443.645050,3285.371582,-527.577942,215.555557,-475.555542,242.500000,53.902695,-644.872253,-340.217010,623
-119.904068,3045.563477,-143.884888,213.333328,-462.222229,260.000000,86.664337,-590.969543,-332.586639,624
-71.942444,2997.601807,-155.875290,220.000000,-440.000000,272.500000,104.585228,-556.667847,-330.556519,625
-119.904068,2757.793701,-551.558716,213.333328,-428.888885,282.500000,131.256561,-477.773895,-329.856506,626
-131.894485,2721.822510,-803.357300,215.555557,-402.222229,292.500000,142.457123,-415.890808,-330.066498,627
47.961628,2709.832031,-1103.117432,213.333328,-397.777771,302.500000,149.737488,-383.269165,-324.886261,628
167.865707,2517.985596,-1067.146240,208.888885,-366.666656,317.500000,156.037796,-364.858246,-313.545685,629
431.654663,2853.716797,-935.251770,202.222229,-360.000000,325.000000,160.728043,-351.487579,-298.214905,630
527.577942,2781.774414,-791.366882,202.222229,-344.444458,325.000000,164.158203,-328.456421,-278.823944,631
503.597107,2781.774414,-311.750580,195.555557,-335.555542,340.000000,164.928253,-294.574738,-261.743103,632
335.731415,2673.860840,-71.942444,193.333328,-326.666656,337.500000,166.538330,-243.122162,-255.512772,633
-191.846512,2446.042969,479.616272,186.666672,-326.666656,345.000000,161.498077,-184.179214,-254.392715,634
-299.760193,2302.158203,719.424438,188.888885,-315.555542,347.500000,143.997208,-126.706337,-260.763031,635
-551.558716,2182.254150,1199.040771,182.222229,-315.555542,350.000000,112.075607,-64.963249,-277.563873,636
-515.587524,2266.187012,1318.944824,184.444443,-313.333344,350.000000,94.364716,-29.681484,-290.514526,637
-551.558716,2374.100586,1342.925659,184.444443,-322.222229,350.000000,64.473221,56.352818,-320.266022,638
-611.510742,2458.033447,1366.906372,191.111115,-317.777771,337.500000,45.922298,149.457474,-352.117615,639
-767.386047,2637.889648,1270.983154,191.111115,-326.666656,340.000000,29.891495,233.601685,-385.509277,640
-839.328491,2733.812744,1223.021484,200.000000,-326.666656,327.500000,10.430522,309.765503,-420.371033,641
-935.251770,2829.736084,1199.040771,206.666672,-346.666656,325.000000,-12.320616,380.399017,-454.742737,642
-1019.184631,2985.611328,1031.175049,215.555557,-344.444458,312.500000,-34.161709,449.842499,-488.974457,643
-1199.040771,3453.237305,575.539551,228.888885,-360.000000,307.500000,-52.152607,513.545654,-518.445923,644
-1163.069458,3669.064697,263.788971,240.000000,-364.444458,290.000000,-67.903397,561.918091,-534.826721,645
-1175.059937,3956.834473,-383.693024,257.777771,-375.555542,282.500000,-76.163811,594.259705,-543.017151,646
-1342.925659,4052.757568,-707.434021,280.000000,-375.555542,252.500000,-83.724190,611.900574,-547.147339,647
-1558.752930,3884.891846,-1223.021484,286.666656,-386.666656,242.500000,-120.686035,654.742737,-554.007690,648
-1582.733765,3681.054932,-1402.877686,306.666656,-382.222229,225.000000,-141.547073,657.332886,-552.887634,649
-1318.944824,3477.218018,-1630.695313,322.222229,-386.666656,212.500000,-182.919144,612.110596,-552.047607,650
-1187.050293,3357.313965,-1546.762573,331.111115,-384.444458,195.000000,-216.660843,576.758850,-548.197388,651
-2086.330811,2661.870361,-1462.829712,348.888885,-384.444458,187.500000,-239.901993,567.868408,-538.186890,652
-2230.215820,2314.148682,-1318.944824,368.888885,-375.555542,167.500000,-248.582428,545.957275,-520.126038,653
-2278.177246,2086.330811,-1007.194214,384.444458,-366.666656,152.500000,-254.182709,513.405701,-499.755005,654
-2146.282959,2086.330811,-815.347656,411.111115,-355.555542,120.000000,-247.112366,500.035004,-490.934540,655
-1894.484375,1918.465088,-263.788971,422.222229,-346.666656,105.000000,-233.811691,512.355652,-495.834808,656
-1882.493896,1882.493896,-107.913666,440.000000,-331.111115,87.500000,-238.641937,533.776672,-500.315033,657
-1774.580200,1870.503540,167.865707,451.111115,-328.888885,80.000000,-269.373474,548.967468,-500.525024,658
-1690.647461,1894.484375,275.779358,464.444458,-311.111115,60.000000,-308.645447,556.107788,-494.784760,659
-1582.733765,1726.618652,719.424438,477.777771,-306.666656,45.000000,-346.097321,566.608337,-485.614288,660
-1690.647461,1906.474731,983.213379,482.222229,-288.888885,22.500000,-370.388519,571.158569,-476.303833,661
-1534.772095,1774.580200,1223.021484,493.333344,-273.333344,7.500000,-385.859283,589.429504,-473.573669,662
-1714.628174,2002.397949,1187.050293,502.222229,-240.000000,-12.500000,-400.560028,626.461304,-466.713348,663
-1918.465088,2278.177246,695.443604,513.333313,-228.888885,-52.500000,-397.829895,683.934204,-446.622345,664
-1798.561035,2206.234863,395.683441,520.000000,-204.444443,-72.500000,-387.119354,746.587341,-430.241516,665
-1726.618652,2158.273193,23.980814,520.000000,-195.555557,-87.500000,-378.088898,775.988831,-407.490387,666
-1642.685791,2194.244629,-191.846512,526.666687,-164.444443,-110.000000,-376.058807,770.318542,-380.189026,667
-1270.983154,2038.369263,-455.635468,524.444458,-162.222229,-117.500000,-382.219116,738.746948,-346.097321,668
-1067.146240,2014.388428,-455.635468,520.000000,-135.555557,-142.500000,-398.669952,697.024841,-307.595398,669
-575.539551,1750.599487,-287.769775,520.000000,-120.000000,-152.500000,-422.051117,655.652771,-264.193207,670
-431.654663,1630.695313,-239.808136,515.555542,-102.222221,-167.500000,-444.942261,623.591187,-217.780884,671
-191.846512,1438.848877,47.961628,506.666656,-80.000000,-197.500000,-460.203003,604.760254,-168.218414,672
-155.875290,1270.983154,227.817734,504.444458,-57.777779,-215.000000,-470.353516,595.239746,-117.395874,673
-191.846512,983.213379,575.539551,491.111115,-55.555557,-225.000000,-477.073853,592.369629,-93.034653,674
-179.856110,959.232544,683.453186,486.666656,-35.555557,-245.000000,-495.904816,587.259399,-49.562477,675
-191.846512,911.270935,815.347656,477.777771,-35.555557,-252.500000,-522.086121,585.369263,-14.000700,676
-191.846512,875.299744,815.347656,468.888885,-15.555555,-275.000000,-543.857178,584.249207,21.841093,677
-191.846512,935.251770,887.290100,457.777771,-8.888889,-280.000000,-557.577881,579.768982,55.092754,678
-215.827332,995.203796,791.366882,451.111115,2.222222,-297.500000,-558.137939,589.009460,87.294365,679
-239.808136,1019.184631,503.597107,435.555542,15.555555,-307.500000,-558.767944,597.479858,116.765839,680
-287.769775,1055.155884,239.808136,420.000000,31.111111,-332.500000,-563.108154,593.139648,150.507523,681
-263.788971,1067.146240,119.904068,404.444458,33.333332,-335.000000,-568.708435,575.148743,189.149460,682
-239.808136,1127.098267,-47.961628,395.555542,46.666668,-350.000000,-576.198792,547.427368,235.281769,683
-263.788971,1103.117432,-143.884888,384.444458,48.888889,-355.000000,-600.280029,509.345459,277.773895,684
-623.501160,1007.194214,-239.808136,371.111115,62.222221,-367.500000,-646.552307,457.892914,312.985657,685
-803.357300,935.251770,-407.673828,360.000000,60.000000,-375.000000,-674.623718,428.631439,347.077362,686
-1055.155884,647.481995,-671.462830,344.444458,64.444443,-395.000000,-729.226440,358.907959,362.408112,687
-1199.040771,575.539551,-551.558716,328.888885,66.666664,-397.500000,-768.848450,280.924042,389.709503,688
-1486.810547,191.846512,-119.904068,293.333344,66.666664,-437.500000,-788.309448,205.460281,414.560730,689
-1570.743286,131.894485,35.971222,268.888885,53.333332,-442.500000,-808.750427,136.996857,434.791748,690
-1990.407593,-191.846512,791.366882,251.111115,57.777779,-465.000000,-851.802612,59.292965,442.282104,691
-2122.302002,-383.693024,1199.040771,220.000000,44.444443,-475.000000,-910.955566,-19.810991,439.341980,692
-2326.138916,-767.386047,2110.311768,193.333328,51.111111,-492.500000,-962.828125,-73.433670,426.041321,693
-2314.148682,-971.222961,2422.062256,164.444443,37.777779,-500.000000,-995.309753,-87.504379,396.359833,694
-2374.100586,-1247.002319,2685.851318,128.888885,40.000000,-515.000000,-1002.450134,-67.553375,353.867706,695
-2362.110107,-1378.896851,2517.985596,93.333336,31.111111,-515.000000,-982.709167,-24.921246,300.035004,696
-2589.927979,-1822.541870,1822.541870,57.777779,40.000000,-522.500000,-946.167297,22.331118,243.192169,697
-2553.956787,-1990.407593,1378.896851,-6.666667,28.888889,-520.000000,-915.715820,49.702484,182.359116,698
-2350.119873,-2206.234863,383.693024,-42.222221,48.888889,-520.000000,-909.485474,56.492825,155.477768,699
-2134.292480,-2314.148682,-23.980814,-77.777779,48.888889,-507.500000,-911.025574,59.502975,105.425270,700
-1678.656982,-2398.081543,-623.501160,-108.888885,55.555557,-507.500000,-918.935974,51.802589,48.582428,701
-1594.724121,-2350.119873,-707.434021,-146.666672,51.111111,-490.000000,-924.606262,31.781590,-19.460974,702
-1318.944824,-2062.350098,-887.290100,-177.777771,57.777779,-480.000000,-927.126343,-6.230311,-86.874344,703
-1115.107910,-1894.484375,-971.222961,-217.777771,51.111111,-460.000000,-934.966736,-57.332867,-142.177109,704
-767.386047,-1606.714600,-1103.117432,-255.555557,48.888889,-442.500000,-951.557617,-117.045853,-175.078751,705
-623.501160,-1558.752930,-1091.127075,-322.222229,24.444445,-397.500000,-982.639160,-178.368927,-194.189713,706
-287.769775,-1534.772095,-1223.021484,-353.333344,17.777779,-372.500000,-1027.371338,-239.972000,-213.440674,707
-179.856110,-1546.762573,-1318.944824,-391.111115,-6.666667,-340.000000,-1063.213135,-293.524689,-233.041656,708
95.923256,-1486.810547,-1462.829712,-411.111115,-15.555555,-310.000000,-1067.203369,-328.246429,-251.312561,709
227.817734,-1474.820068,-1522.781738,-442.222229,-35.555557,-272.500000,-1033.321655,-340.707031,-262.513123,710
311.750580,-1630.695313,-1654.676147,-460.000000,-44.444443,-242.500000,-1007.140381,-342.317108,-265.523285,711
311.750580,-1714.628174,-1798.561035,-475.555542,-66.666664,-200.000000,-955.057739,-346.377319,-275.113770,712
575.539551,-1726.618652,-2230.215820,-486.666656,-77.777779,-167.500000,-909.695496,-367.308380,-288.204407,713
683.453186,-1678.656982,-2266.187012,-495.555542,-95.555557,-127.500000,-858.242920,-396.429840,-295.974792,714
1199.040771,-1486.810547,-2470.023926,-508.888885,-122.222221,-67.500000,-774.448730,-410.780548,-291.354584,715
1462.829712,-1318.944824,-2505.995117,-511.111115,-140.000000,-37.500000,-649.002441,-402.450134,-273.853699,716
1894.484375,-1007.194214,-2446.042969,-508.888885,-144.444443,-22.500000,-490.444519,-375.008759,-247.322372,717
1990.407593,-935.251770,-2362.110107,-513.333313,-153.333328,-5.000000,-329.926514,-344.907257,-216.520828,718
2038.369263,-791.366882,-2086.330811,-508.888885,-157.777771,2.500000,-198.949951,-330.416534,-190.339523,719
1882.493896,-767.386047,-1930.455566,-508.888885,-166.666672,15.000000,-110.535530,-338.046906,-170.318512,720
1582.733765,-719.424438,-1390.887207,-508.888885,-168.888885,10.000000,-59.082954,-361.288055,-156.947845,721
1426.858398,-779.376465,-1103.117432,-506.666656,-173.333328,20.000000,-37.311867,-387.049347,-151.347565,722
1342.925659,-791.366882,-647.481995,-506.666656,-177.777771,22.500000,-32.411621,-398.879944,-151.837601,723
1258.992798,-803.357300,-443.645050,-504.444458,-193.333328,32.500000,-29.891495,-414.420715,-154.497726,724
1151.079102,-695.443604,-119.904068,-504.444458,-191.111115,32.500000,-38.571930,-417.920898,-164.578232,725
1103.117432,-707.434021,-23.980814,-502.222229,-204.444443,45.000000,-53.202660,-418.270905,-180.889053,726
1103.117432,-671.462830,575.539551,-500.000000,-195.555557,45.000000,-67.483376,-415.960815,-196.569824,727
1282.973511,-539.568298,851.318909,-502.222229,-208.888885,52.500000,-75.673782,-402.450134,-204.270218,728
1894.484375,-263.788971,1366.906372,-497.777771,-204.444443,52.500000,-77.073853,-369.338470,-196.919846,729
2098.321289,-155.875290,1474.820068,-495.555542,-215.555557,62.500000,-71.893593,-322.996155,-176.898849,730
2206.234863,-119.904068,1558.752930,-495.555542,-217.777771,70.000000,-60.063004,-273.503693,-146.517334,731
2158.273193,-131.894485,1486.810547,-488.888885,-224.444443,80.000000,-47.812389,-233.601685,-109.415474,732
1726.618652,-359.712219,1294.963989,-488.888885,-220.000000,80.000000,-38.081905,-210.290512,-72.383621,733
1498.800903,-443.645050,1270.983154,-488.888885,-226.666672,87.500000,-33.671684,-201.190063,-43.472176,734
1031.175049,-671.462830,1103.117432,-484.444458,-217.777771,85.000000,-35.141758,-198.739944,-21.001051,735
827.338074,-791.366882,1007.194214,-488.888885,-220.000000,92.500000,-35.981800,-196.849838,-12.950647,736
335.731415,-935.251770,527.577942,-482.222229,-215.555557,90.000000,-38.501926,-195.939804,-10.920547,737
263.788971,-947.242188,491.606689,-488.888885,-215.555557,97.500000,-41.442074,-200.910049,-24.431221,738
-167.865707,-1079.136597,215.827332,-482.222229,-211.111115,97.500000,-46.622330,-214.420731,-52.012600,739
-299.760193,-1067.146240,119.904068,-482.222229,-220.000000,107.500000,-53.342667,-245.012253,-93.384666,740
-575.539551,-1031.175049,47.961628,-477.777771,-217.777771,110.000000,-51.032551,-286.104309,-145.047256,741
-707.434021,-875.299744,119.904068,-480.000000,-224.444443,117.500000,-33.391670,-316.345825,-198.949951,742
-863.309326,-551.558716,95.923256,-471.111115,-228.888885,120.000000,2.660133,-325.866302,-245.782288,743
-899.280518,-359.712219,119.904068,-477.777771,-240.000000,125.000000,56.282814,-320.266022,-284.494232,744
-959.232544,-23.980814,95.923256,-466.666656,-240.000000,122.500000,108.085403,-313.755676,-320.896057,745
-1067.146240,119.904068,155.875290,-466.666656,-255.555557,120.000000,148.197418,-313.825684,-348.757446,746
-959.232544,335.731415,239.808136,-466.666656,-257.777771,115.000000,179.768997,-319.565979,-365.418274,747
-983.213379,443.645050,335.731415,-462.222229,-271.111115,112.500000,192.299622,-323.066162,-370.388519,748
-983.213379,623.501160,479.616272,-457.777771,-288.888885,97.500000,207.980408,-329.016449,-375.568787,749
-947.242188,515.587524,479.616272,-460.000000,-304.444458,100.000000,204.900253,-335.386780,-375.358765,750
-887.290100,575.539551,671.462830,-451.111115,-306.666656,97.500000,176.688843,-361.638092,-370.178528,751
-767.386047,587.529968,695.443604,-453.333344,-324.444458,102.500000,124.046204,-387.959412,-361.218079,752
-383.693024,671.462830,695.443604,-444.444458,-322.222229,100.000000,53.272663,-417.850891,-354.987762,753
-263.788971,671.462830,743.405273,-444.444458,-335.555542,117.500000,-19.810991,-447.392365,-351.487579,754
-95.923256,647.481995,815.347656,-433.333344,-342.222229,117.500000,-77.283867,-464.613251,-348.407410,755
11.990407,635.491577,875.299744,-424.444458,-346.666656,137.500000,-112.355621,-461.533081,-341.337067,756
191.846512,599.520386,983.213379,-411.111115,-353.333344,157.500000,-131.956604,-439.972015,-328.876434,757
287.769775,599.520386,959.232544,-402.222229,-366.666656,177.500000,-149.037460,-411.270569,-312.985657,758
359.712219,551.558716,815.347656,-391.111115,-366.666656,180.000000,-172.558624,-381.939087,-297.304871,759
383.693024,563.549133,731.414856,-386.666656,-368.888885,197.500000,-185.579285,-369.408478,-280.924042,760
455.635468,383.693024,647.481995,-373.333344,-373.333344,207.500000,-207.560379,-346.867340,-272.453613,761
419.664246,431.654663,623.501160,-368.888885,-375.555542,225.000000,-222.121109,-329.856506,-255.442780,762
431.654663,503.597107,527.577942,-355.555542,-371.111115,230.000000,-231.431580,-308.645447,-240.392029,763
383.693024,491.606689,311.750580,-346.666656,-373.333344,247.500000,-241.722092,-290.654541,-226.881348,764
191.846512,407.673828,71.942444,-335.555542,-368.888885,262.500000,-263.213165,-291.564575,-212.530624,765
107.913666,395.683441,11.990407,-315.555542,-373.333344,290.000000,-302.205109,-302.905151,-197.969894,766
0.000000,287.769775,-143.884888,-297.777771,-362.222229,302.500000,-342.457123,-313.265656,-187.749390,767
-23.980814,239.808136,-119.904068,-288.888885,-362.222229,320.000000,-364.228210,-321.106049,-184.529236,768
0.000000,239.808136,71.942444,-273.333344,-353.333344,330.000000,-366.258331,-318.235901,-184.459229,769
-59.952034,275.779358,179.856110,-257.777771,-353.333344,350.000000,-353.307678,-294.854736,-185.649292,770
-191.846512,383.693024,287.769775,-242.222229,-342.222229,357.500000,-329.086456,-253.902695,-184.039200,771
-359.712219,419.664246,359.712219,-231.111115,-344.444458,370.000000,-306.405334,-233.531677,-178.648941,772
-767.386047,287.769775,455.635468,-215.555557,-337.777771,375.000000,-302.975159,-198.459930,-178.438919,773
-971.222961,335.731415,671.462830,-193.333328,-333.333344,400.000000,-286.944336,-210.850540,-163.668182,774
-1175.059937,455.635468,1127.098267,-175.555557,-331.111115,397.500000,-292.054596,-127.406372,-193.069656,775
-1282.973511,407.673828,1067.146240,-164.444443,-344.444458,402.500000,-293.594696,24.431221,-232.551636,776
-1534.772095,575.539551,599.520386,-144.444443,-346.666656,402.500000,-289.184448,128.876450,-280.924042,777
-1666.666626,695.443604,383.693024,-131.111115,-368.888885,405.000000,-288.484436,174.588730,-321.176056,778
-2062.350098,935.251770,143.884888,-111.111115,-371.111115,400.000000,-286.244324,198.669937,-350.647522,779
-2194.244629,1031.175049,107.913666,-93.333336,-391.111115,410.000000,-281.694092,225.901291,-381.589081,780
-2350.119873,1223.021484,-191.846512,-80.000000,-402.222229,402.500000,-274.623749,270.213501,-418.760956,781
-2326.138916,1426.858398,-347.721802,-57.777779,-417.777771,397.500000,-263.283173,316.205811,-462.793152,782
-2326.138916,1774.580200,-647.481995,-13.333333,-451.111115,380.000000,-252.432617,359.677979,-511.165558,783
-2434.052734,1906.474731,-767.386047,6.666667,-473.333344,372.500000,-244.452225,387.959412,-560.518005,784
-2805.755371,2110.311768,-1055.155884,35.555557,-484.444458,360.000000,-243.402176,393.699677,-584.109192,785
-2841.726563,2134.292480,-1067.146240,64.444443,-508.888885,355.000000,-244.732239,393.629700,-630.661560,786
-2901.678467,2302.158203,-1079.136597,97.777779,-513.333313,330.000000,-242.842148,389.429474,-678.403931,787
-2865.707275,2505.995117,-1043.165405,124.444443,-531.111084,327.500000,-231.641586,395.449768,-728.316406,788
-2733.812744,2877.697754,-983.213379,164.444443,-531.111084,302.500000,-205.880295,412.180603,-774.518738,789
-2661.870361,2997.601807,-815.347656,197.777771,-535.555542,292.500000,-171.508575,426.111298,-812.250610,790
-2446.042969,3261.390625,-623.501160,268.888885,-528.888916,245.000000,-138.466919,432.061615,-840.112000,791
-2230.215820,3369.304443,-467.625885,300.000000,-526.666687,237.500000,-108.715439,430.871552,-859.502991,792
-1894.484375,3621.103027,-215.827332,335.555542,-502.222229,217.500000,-87.154358,422.051117,-867.693420,793
-1738.609009,3621.103027,-23.980814,360.000000,-497.777771,207.500000,-82.884148,415.960815,-868.043396,794
-1366.906372,3525.179688,455.635468,393.333344,-473.333344,187.500000,-93.664680,409.870483,-863.423157,795
-1258.992798,3537.170166,611.510742,415.555542,-457.777771,180.000000,-113.545677,405.110260,-855.442810,796
-935.251770,3621.103027,1007.194214,437.777771,-428.888885,160.000000,-125.726288,403.920197,-842.982178,797
-863.309326,3633.093262,1079.136597,453.333344,-406.666656,147.500000,-154.007706,407.070343,-833.531677,798
-575.539551,3669.064697,1438.848877,477.777771,-380.000000,135.000000,-180.539032,426.951355,-814.910767,799
-527.577942,3657.074219,1558.752930,502.222229,-337.777771,105.000000,-206.650330,460.273010,-792.719666,800
-383.693024,3549.160400,1774.580200,517.777771,-311.111115,90.000000,-242.282120,492.124603,-765.488281,801
-359.712219,3573.141357,1726.618652,524.444458,-291.111115,72.500000,-283.374176,518.095886,-740.077026,802
-287.769775,3597.122070,1486.810547,535.555542,-264.444458,55.000000,-311.585571,543.997192,-709.975525,803
-215.827332,3561.150879,1390.887207,544.444458,-248.888885,42.500000,-316.975861,572.488647,-673.363647,804
-143.884888,3525.179688,1175.059937,551.111084,-215.555557,20.000000,-300.245026,606.160339,-633.601685,805
-107.913666,3513.189209,983.213379,551.111084,-202.222229,12.500000,-275.813782,642.352112,-591.459595,806
119.904068,3429.256348,263.788971,551.111084,-177.777771,-5.000000,-257.752899,666.223328,-543.297180,807
179.856110,3369.304443,-11.990407,555.555542,-144.444443,-20.000000,-248.932449,663.493164,-484.774231,808
551.558716,3021.582520,-503.597107,557.777771,-124.444443,-37.500000,-239.972000,654.182739,-415.610779,809
563.549133,2985.611328,-563.549133,553.333313,-117.777779,-40.000000,-233.881699,621.281067,-377.038849,810
767.386047,2757.793701,-791.366882,560.000000,-102.222221,-47.500000,-219.460968,578.788940,-294.994751,811
755.395630,2553.956787,-863.309326,548.888916,-104.444443,-47.500000,-205.670288,535.526794,-208.820450,812
479.616272,2230.215820,-887.290100,551.111084,-93.333336,-60.000000,-200.420029,483.864197,-128.176407,813
275.779358,1882.493896,-719.424438,553.333313,-95.555557,-62.500000,-205.530273,438.081909,-46.902344,814
-431.654663,1151.079102,-263.788971,548.888916,-95.555557,-75.000000,-205.390274,397.059845,28.071404,815
-779.376465,947.242188,35.971222,548.888916,-93.333336,-75.000000,-201.050049,361.148071,77.073853,816
-1510.791260,503.597107,551.558716,551.111084,-95.555557,-97.500000,-192.229614,343.087158,105.635284,817
-1702.637817,323.740997,995.203796,544.444458,-108.888885,-100.000000,-193.699692,334.756744,117.465874,818
-1942.445923,95.923256,1894.484375,548.888916,-104.444443,-110.000000,-211.620590,346.797333,110.885544,819
-2026.378784,251.798553,2170.263672,544.444458,-111.111115,-110.000000,-240.462021,391.809601,82.814140,820
-2086.330811,383.693024,2374.100586,546.666687,-113.333336,-125.000000,-254.812744,464.613251,51.662582,821
-2074.340332,395.683441,2398.081543,537.777771,-111.111115,-130.000000,-256.632843,505.705292,35.771790,822
-1990.407593,695.443604,2302.158203,537.777771,-104.444443,-145.000000,-250.542526,592.999634,4.410221,823
-1906.474731,791.366882,2242.206055,537.777771,-102.222221,-147.500000,-247.042358,673.363647,-27.721386,824
-1702.637817,1318.944824,1750.599487,531.111084,-80.000000,-165.000000,-260.343018,738.676941,-57.682884,825
-1426.858398,1630.695313,1354.916016,526.666687,-75.555557,-167.500000,-282.394135,795.169739,-79.103958,826
-983.213379,2086.330811,407.673828,526.666687,-57.777779,-182.500000,-292.894653,826.041321,-78.683937,827
-935.251770,2254.196533,-71.942444,520.000000,-55.555557,-185.000000,-293.944702,835.001770,-62.233112,828
-839.328491,2422.062256,-959.232544,522.222229,-40.000000,-192.500000,-293.804688,819.671021,-24.781239,829
-827.338074,2302.158203,-1139.088623,511.111115,-40.000000,-197.500000,-299.964996,769.828491,33.251663,830
-959.232544,2014.388428,-1223.021484,511.111115,-24.444445,-207.500000,-320.406036,682.254150,104.655235,831
-1079.136597,1810.551514,-1151.079102,504.444458,-26.666666,-210.000000,-369.408478,573.888672,174.098709,832
-1486.810547,1318.944824,-983.213379,502.222229,-22.222221,-222.500000,-433.811707,451.592590,236.051804,833
-1498.800903,1175.059937,-899.280518,491.111115,-31.111111,-247.500000,-469.723480,392.229614,285.054260,834
-1990.407593,815.347656,-623.501160,486.666656,-35.555557,-267.500000,-539.796997,294.154724,302.905151,835
-2158.273193,479.616272,-455.635468,471.111115,-44.444443,-287.500000,-620.161011,210.360519,320.756042,836
-2685.851318,-215.827332,-287.769775,466.666656,-42.222221,-315.000000,-692.334595,138.326920,321.526093,837
-2937.649658,-443.645050,-239.808136,446.666656,-60.000000,-337.500000,-743.017151,83.514175,304.655243,838
-3261.390625,-1079.136597,-215.827332,433.333344,-57.777779,-360.000000,-766.538330,46.412323,272.943665,839
-3213.429199,-1354.916016,-227.817734,413.333344,-71.111115,-380.000000,-767.168396,10.080504,226.251312,840
-2853.716797,-1606.714600,-335.731415,393.333344,-68.888885,-405.000000,-755.897827,-31.291565,168.008408,841
-2434.052734,-1450.839233,-467.625885,346.666656,-88.888885,-440.000000,-743.297180,-76.233810,103.605179,842
-1462.829712,-1031.175049,-623.501160,324.444458,-84.444443,-462.500000,-748.547424,-134.196716,47.042351,843
-1007.194214,-863.309326,-671.462830,293.333344,-95.555557,-477.500000,-784.949280,-194.189713,8.960448,844
-215.827332,-503.597107,-599.520386,268.888885,-100.000000,-497.500000,-835.491760,-261.463074,0.840042,845
-95.923256,-443.645050,-551.558716,237.777771,-115.555557,-507.500000,-873.153687,-298.004913,8.610431,846
431.654663,-47.961628,431.654663,202.222229,-128.888885,-525.000000,-867.903381,-392.789642,4.200210,847
779.376465,23.980814,107.913666,164.444443,-153.333328,-530.000000,-817.360901,-492.544647,-66.923347,848
695.443604,335.731415,359.712219,133.333328,-164.444443,-537.500000,-789.919495,-416.100800,29.331467,849
671.462830,-47.961628,323.740997,106.666664,-177.777771,-537.500000,-755.197754,-363.108154,121.946098,850
575.539551,-311.750580,263.788971,42.222221,-202.222229,-542.500000,-723.276184,-347.847382,167.518372,851
539.568298,-407.673828,299.760193,13.333333,-224.444443,-540.000000,-690.164490,-326.636322,187.049347,852
263.788971,-743.405273,359.712219,-11.111111,-224.444443,-532.500000,-638.081909,-314.945740,191.319565,853
179.856110,-899.280518,359.712219,-40.000000,-244.444443,-525.000000,-561.918091,-335.176758,168.218414,854
0.000000,-1175.059937,383.693024,-57.777779,-251.111115,-527.500000,-488.834442,-346.867340,137.416870,855
-143.884888,-983.213379,479.616272,-80.000000,-268.888885,-515.000000,-445.642273,-311.375580,97.864891,856
-191.846512,-1342.925659,215.827332,-93.333336,-273.333344,-512.500000,-416.870850,-225.271271,68.533424,857
-179.856110,-1306.954346,191.846512,-108.888885,-280.000000,-502.500000,-357.157867,-221.421066,6.580329,858
-71.942444,-1127.098267,-23.980814,-126.666664,-297.777771,-490.000000,-326.566345,-227.581375,-21.141058,859
59.952034,-971.222961,-59.952034,-137.777771,-311.111115,-477.500000,-263.983215,-233.181656,-59.642982,860
263.788971,-959.232544,-23.980814,-140.000000,-315.555542,-477.500000,-205.320267,-246.482330,-82.954147,861
215.827332,-659.472412,83.932854,-146.666672,-333.333344,-465.000000,-162.198105,-277.423889,-106.965347,862
239.808136,-479.616272,431.654663,-146.666672,-340.000000,-465.000000,-146.727341,-305.565277,-123.836197,863
263.788971,-287.769775,659.472412,-153.333328,-357.777771,-447.500000,-147.147354,-327.336365,-140.987045,864
623.501160,47.961628,1079.136597,-148.888885,-364.444458,-447.500000,-140.077011,-328.456421,-158.417923,865
935.251770,299.760193,1103.117432,-151.111115,-384.444458,-432.500000,-122.996155,-307.035370,-169.338470,866
1390.887207,671.462830,983.213379,-151.111115,-391.111115,-425.000000,-102.065102,-280.014008,-161.848099,867
1450.839233,647.481995,1019.184631,-146.666672,-413.333344,-407.500000,-94.294716,-272.033600,-139.306961,868
1342.925659,623.501160,1055.155884,-144.444443,-417.777771,-407.500000,-100.385017,-272.803650,-111.795593,869
1306.954346,611.510742,1127.098267,-148.888885,-431.111115,-395.000000,-86.524330,-258.942963,-87.294365,870
359.712219,-143.884888,71.942444,-144.444443,-437.777771,-395.000000,-30.381519,-243.752197,-89.744492,871
899.280518,287.769775,1199.040771,-142.222229,-448.888885,-385.000000,68.253410,-249.912491,-88.204414,872
959.232544,239.808136,1414.868042,-137.777771,-446.666656,-380.000000,16.730837,-235.001755,-66.573326,873
1223.021484,359.712219,1306.954346,-137.777771,-464.444458,-370.000000,25.971298,-151.627579,-69.793488,874
1007.194214,215.827332,1127.098267,-131.111115,-464.444458,-370.000000,80.924049,-108.645432,-66.363319,875
863.309326,155.875290,1007.194214,-122.222221,-473.333344,-367.500000,131.956604,-69.863495,-62.373119,876
815.347656,0.000000,839.328491,-111.111115,-468.888885,-375.000000,171.158554,-48.302414,-54.672733,877
779.376465,59.952034,803.357300,-106.666664,-477.777771,-367.500000,196.079803,-42.352119,-40.532028,878
599.520386,-47.961628,863.309326,-95.555557,-471.111115,-372.500000,221.981094,-43.472176,-25.831291,879
587.529968,-47.961628,911.270935,-91.111115,-475.555542,-370.000000,251.102554,-48.652431,-16.380819,880
575.539551,-23.980814,1294.963989,-82.222221,-473.333344,-375.000000,268.463440,-49.352467,-12.880644,881
587.529968,-179.856110,1354.916016,-77.777779,-480.000000,-372.500000,257.612885,-31.641582,-16.870844,882
599.520386,-191.846512,1462.829712,-66.666664,-477.777771,-380.000000,231.011551,-21.491076,-26.181309,883
527.577942,-83.932854,1450.839233,-57.777779,-482.222229,-377.500000,216.240814,-12.180609,-30.031502,884
503.597107,-47.961628,1414.868042,-44.444443,-473.333344,-377.500000,185.579285,3.710186,-39.061954,885
515.587524,-35.971222,1366.906372,-46.666668,-484.444458,-377.500000,160.728043,27.231361,-44.242214,886
479.616272,0.000000,1199.040771,-35.555557,-475.555542,-390.000000,141.687088,36.611832,-43.192162,887
491.606689,-11.990407,1151.079102,-31.111111,-475.555542,-377.500000,124.116211,35.351768,-39.621983,888
455.635468,23.980814,1007.194214,-28.888889,-473.333344,-392.500000,115.925797,31.571579,-32.061604,889
395.683441,-35.971222,995.203796,-24.444445,-477.777771,-382.500000,115.645782,28.771439,-22.891146,890
383.693024,-191.846512,1055.155884,-17.777779,-468.888885,-390.000000,112.705635,42.002102,-20.861044,891
407.673828,-179.856110,959.232544,-15.555555,-473.333344,-390.000000,106.895348,43.192162,-38.081905,892
311.750580,-95.923256,911.270935,-15.555555,-468.888885,-387.500000,99.824989,29.961498,-61.183060,893
287.769775,-95.923256,887.290100,-6.666667,-471.111115,-390.000000,99.404968,35.911797,-76.233810,894
287.769775,-167.865707,887.290100,2.222222,-468.888885,-395.000000,97.654884,47.462372,-85.754288,895
287.769775,-143.884888,839.328491,4.444445,-471.111115,-392.500000,96.184807,46.412323,-92.054604,896
335.731415,-119.904068,935.251770,13.333333,-464.444458,-397.500000,93.244659,40.532028,-106.055305,897
395.683441,-23.980814,935.251770,15.555555,-471.111115,-392.500000,104.235214,37.171860,-118.165909,898
479.616272,143.884888,1031.175049,26.666666,-464.444458,-397.500000,132.726639,44.942249,-124.326218,899
479.616272,143.884888,1067.146240,31.111111,-464.444458,-397.500000,165.278259,56.492825,-126.356316,900
359.712219,167.865707,1270.983154,42.222221,-462.222229,-400.000000,188.519424,68.533424,-126.846344,901
359.712219,191.846512,1270.983154,62.222221,-464.444458,-402.500000,199.789993,78.263916,-125.096252,902
335.731415,191.846512,1294.963989,68.888885,-448.888885,-407.500000,197.829895,82.604134,-125.936295,903
371.702637,191.846512,1270.983154,73.333336,-460.000000,-405.000000,182.289124,84.914246,-125.586281,904
287.769775,215.827332,1127.098267,86.666664,-446.666656,-410.000000,158.277908,84.004204,-121.526077,905
323.740997,191.846512,1103.117432,91.111115,-453.333344,-402.500000,133.776688,82.534126,-116.345818,906
335.731415,167.865707,1055.155884,97.777779,-440.000000,-417.500000,109.555481,74.273712,-108.925446,907
359.712219,191.846512,1007.194214,102.222221,-444.444458,-410.000000,97.514877,70.563530,-103.185158,908
263.788971,191.846512,959.232544,111.111115,-437.777771,-415.000000,79.733986,67.343369,-102.555130,909
251.798553,203.836914,887.290100,115.555557,-435.555542,-412.500000,73.923698,64.683235,-104.585228,910
167.865707,119.904068,767.386047,122.222221,-426.666656,-417.500000,72.803642,58.242912,-105.425270,911
155.875290,119.904068,815.347656,126.666664,-433.333344,-415.000000,68.743439,53.482674,-108.085403,912
143.884888,23.980814,911.270935,131.111115,-422.222229,-420.000000,70.493523,53.062653,-115.365768,913
119.904068,131.894485,911.270935,135.555557,-426.666656,-415.000000,80.364021,60.693035,-124.606232,914
71.942444,167.865707,911.270935,146.666672,-420.000000,-417.500000,92.264618,68.043404,-129.506470,915
107.913666,215.827332,959.232544,144.444443,-422.222229,-417.500000,104.025200,73.083656,-129.156464,916
143.884888,215.827332,1031.175049,153.333328,-413.333344,-417.500000,118.165909,77.003853,-124.466225,917
155.875290,227.817734,1019.184631,162.222229,-408.888885,-420.000000,132.936646,82.324120,-118.655937,918
191.846512,287.769775,959.232544,175.555557,-400.000000,-420.000000,142.737137,85.334267,-111.515579,919
191.846512,239.808136,947.242188,177.777771,-408.888885,-417.500000,145.257263,86.524330,-104.655235,920
191.846512,191.846512,911.270935,191.111115,-395.555542,-422.500000,143.857193,86.244316,-101.645081,921
191.846512,215.827332,959.232544,191.111115,-397.777771,-417.500000,140.217010,85.824295,-98.494926,922
119.904068,215.827332,839.328491,200.000000,-386.666656,-417.500000,136.086807,86.384323,-96.814842,923
95.923256,191.846512,815.347656,206.666672,-388.888885,-415.000000,123.836197,82.324120,-95.624779,924
71.942444,143.884888,719.424438,213.333328,-375.555542,-422.500000,101.435074,72.523628,-90.864548,925
47.961628,143.884888,731.414856,213.333328,-382.222229,-420.000000,69.793488,63.633183,-84.004204,926
0.000000,0.000000,719.424438,222.222229,-375.555542,-417.500000,33.041653,58.872944,-81.134056,927
11.990407,35.971222,719.424438,224.444443,-373.333344,-417.500000,1.470073,57.752888,-82.604134,928
23.980814,23.980814,671.462830,231.111115,-362.222229,-427.500000,-16.170809,57.122856,-84.844246,929
-11.990407,35.971222,683.453186,224.444443,-366.666656,-425.000000,-14.490725,54.392719,-84.914246,930
-71.942444,23.980814,719.424438,231.111115,-357.777771,-427.500000,-0.140007,49.562477,-83.934196,931
-35.971222,23.980814,683.453186,224.444443,-362.222229,-422.500000,15.610781,39.341969,-80.504028,932
0.000000,119.904068,743.405273,226.666672,-353.333344,-425.000000,21.701086,34.581730,-76.303818,933
11.990407,179.856110,779.376465,231.111115,-348.888885,-422.500000,30.171509,29.121456,-68.463425,934
0.000000,191.846512,791.366882,235.555557,-351.111115,-425.000000,39.551979,24.711235,-58.312916,935
-23.980814,179.856110,851.318909,235.555557,-351.111115,-422.500000,47.182358,19.040953,-46.762337,936
-23.980814,167.865707,935.251770,244.444443,-346.666656,-420.000000,47.252361,11.410571,-34.721737,937
-11.990407,143.884888,923.261353,240.000000,-348.888885,-417.500000,42.142109,6.720336,-24.571228,938
0.000000,191.846512,959.232544,248.888885,-346.666656,-422.500000,35.981800,4.410221,-15.680784,939
47.961628,179.856110,911.270935,246.666672,-348.888885,-420.000000,51.382568,20.511026,-8.680434,940
-47.961628,143.884888,1175.059937,248.888885,-340.000000,-422.500000,60.623032,35.421772,-8.680434,941
-35.971222,143.884888,1151.079102,251.111115,-346.666656,-420.000000,44.382221,13.090654,-7.350368,942
0.000000,95.923256,983.213379,253.333328,-342.222229,-420.000000,25.971298,4.900245,-2.450123,943
11.990407,83.932854,995.203796,253.333328,-340.000000,-417.500000,8.050403,0.140007,-1.120056,944
0.000000,167.865707,887.290100,255.555557,-342.222229,-422.500000,2.590130,1.610080,1.820091,945
23.980814,83.932854,983.213379,251.111115,-346.666656,-420.000000,7.770389,17.290865,8.610431,946
-47.961628,71.942444,935.251770,255.555557,-335.555542,-422.500000,11.060554,25.341267,10.150508,947
-131.894485,23.980814,839.328491,251.111115,-342.222229,-417.500000,14.630732,25.691284,11.830591,948
-215.827332,0.000000,791.366882,255.555557,-335.555542,-420.000000,23.521175,25.341267,12.600630,949
-263.788971,-119.904068,887.290100,251.111115,-344.444458,-415.000000,19.670984,19.600981,13.930696,950
-263.788971,-167.865707,983.213379,255.555557,-340.000000,-422.500000,8.680434,19.670984,7.840392,951
-275.779358,-167.865707,959.232544,253.333328,-340.000000,-420.000000,-3.570179,21.421072,-2.730137,952
-263.788971,-119.904068,863.309326,257.777771,-328.888885,-420.000000,-8.470424,24.991249,-11.200561,953
-251.798553,-107.913666,899.280518,251.111115,-340.000000,-417.500000,-4.620231,29.961498,-14.000700,954
-215.827332,-47.961628,863.309326,257.777771,-333.333344,-425.000000,1.610080,31.571579,-12.810640,955
-191.846512,0.000000,875.299744,255.555557,-333.333344,-420.000000,5.670284,31.501575,-10.010501,956
-119.904068,0.000000,1007.194214,255.555557,-326.666656,-422.500000,2.100105,30.031502,-6.090304,957
-131.894485,0.000000,1007.194214,251.111115,-333.333344,-420.000000,-2.940147,27.441372,-4.760238,958
-95.923256,0.000000,1007.194214,255.555557,-328.888885,-425.000000,-10.010501,26.391319,-2.380119,959
-71.942444,11.990407,995.203796,255.555557,-333.333344,-422.500000,-6.860343,29.121456,1.050053,960
-71.942444,23.980814,839.328491,257.777771,-326.666656,-420.000000,1.820091,30.731537,6.230311,961
-107.913666,0.000000,791.366882,251.111115,-328.888885,-422.500000,9.240462,27.371368,12.110605,962
-167.865707,-71.942444,815.347656,255.555557,-324.444458,-422.500000,15.120756,21.071054,18.060904,963
-131.894485,-71.942444,827.338074,253.333328,-328.888885,-422.500000,18.620932,12.530626,22.401121,964
-239.808136,-215.827332,671.462830,260.000000,-324.444458,-425.000000,23.171160,8.190410,22.401121,965
-251.798553,-215.827332,611.510742,255.555557,-328.888885,-420.000000,42.562130,5.180259,18.200911,966
-287.769775,-239.808136,455.635468,260.000000,-326.666656,-422.500000,73.993698,-3.500175,15.960798,967
-287.769775,-227.817734,467.625885,260.000000,-326.666656,-417.500000,104.165207,-13.860693,18.270914,968
-191.846512,-191.846512,599.520386,266.666656,-326.666656,-417.500000,119.285965,-23.241163,20.301016,969
35.971222,-251.798553,479.616272,268.888885,-328.888885,-407.500000,120.056007,-26.321316,19.460974,970
23.980814,-431.654663,623.501160,275.555542,-326.666656,-410.000000,139.586975,-7.420371,-9.380469,971
-107.913666,-251.798553,887.290100,282.222229,-335.555542,-400.000000,147.077362,-16.380819,-37.241863,972
551.558716,-527.577942,-383.693024,288.888885,-326.666656,-402.500000,171.438568,-22.751139,-72.523628,973
671.462830,-419.664246,-659.472412,297.777771,-331.111115,-392.500000,325.726288,0.630032,-149.527481,974
5659.472168,-215.827332,-5779.376465,324.444458,-315.555542,-377.500000,674.833740,47.252361,-269.793488,975
119.904068,395.683441,-2541.966309,355.555542,-311.111115,-350.000000,1287.714355,187.889389,-441.792084,976
815.347656,1175.059937,-5299.759766,395.555542,-286.666656,-312.500000,1684.354248,274.273712,-466.293304,977
3621.103027,1738.609009,-4652.277832,428.888885,-282.222229,-280.000000,662.933167,-382.359131,100.945045,978
4388.489258,983.213379,-4124.700195,442.222229,-295.555542,-255.000000,311.515564,-35.841793,102.485123,979
191.846512,515.587524,-527.577942,444.444458,-297.777771,-240.000000,274.903748,212.600632,-26.251312,980
-1606.714600,-263.788971,695.443604,451.111115,-280.000000,-235.000000,303.255157,237.381866,-56.072803,981
-539.568298,-455.635468,335.731415,453.333344,-284.444458,-225.000000,289.184448,180.539032,-31.921597,982
-551.558716,-335.731415,407.673828,462.222229,-280.000000,-225.000000,183.059158,18.410921,16.940847,983
-791.366882,-455.635468,395.683441,462.222229,-286.666656,-220.000000,91.844597,-55.232761,14.560728,984
-863.309326,-311.750580,383.693024,457.777771,-282.222229,-217.500000,47.112354,-21.911097,-4.270214,985
-683.453186,-131.894485,515.587524,457.777771,-282.222229,-215.000000,31.361568,8.890445,-25.271263,986
-431.654663,119.904068,575.539551,462.222229,-277.777771,-215.000000,10.920547,0.910046,-22.051104,987
-539.568298,143.884888,539.568298,457.777771,-286.666656,-217.500000,-23.311165,-21.771090,10.570529,988
-1294.963989,-215.827332,1438.848877,462.222229,-282.222229,-220.000000,-56.142807,-14.840742,38.921947,989
-815.347656,-59.952034,623.501160,455.555542,-291.111115,-215.000000,-97.024849,-23.731186,71.403572,990
-839.328491,-599.520386,743.405273,455.555542,-288.888885,-230.000000,-146.867340,-33.111656,73.013649,991
-695.443604,-455.635468,419.664246,448.888885,-295.555542,-227.500000,-201.470078,-51.942596,68.113403,992
-647.481995,-215.827332,623.501160,446.666656,-291.111115,-240.000000,-252.222610,-95.834793,87.504379,993
-1211.031128,-299.760193,1007.194214,437.777771,-300.000000,-240.000000,-272.943665,-112.425621,104.655235,994
-671.462830,-95.923256,335.731415,433.333344,-308.888885,-255.000000,-308.785431,-132.306610,114.875748,995
-1702.637817,-803.357300,1019.184631,417.777771,-324.444458,-265.000000,-300.035004,-174.868744,165.838287,996
-263.788971,-575.539551,647.481995,413.333344,-322.222229,-280.000000,-257.262878,-10.710536,108.925446,997
-887.290100,-287.769775,1354.916016,404.444458,-324.444458,-282.500000,-285.404266,117.675888,56.352818,998
-431.654663,551.558716,623.501160,402.222229,-317.777771,-297.500000,-315.295776,100.875046,66.643333,999
-371.702637,227.817734,1007.194214,388.888885,-331.111115,-302.500000,-317.535889,49.492474,144.697235,1000
-599.520386,0.000000,1103.117432,380.000000,-322.222229,-317.500000,-254.952744,49.072453,148.127411,1001
-287.769775,179.856110,1043.165405,373.333344,-328.888885,-315.000000,-190.759537,27.721386,127.266365,1002
-791.366882,95.923256,1510.791260,371.111115,-335.555542,-325.000000,-155.057755,32.621632,93.594681,1003
-491.606689,-47.961628,923.261353,357.777771,-340.000000,-332.500000,-114.245712,21.631083,69.373466,1004
-359.712219,239.808136,1079.136597,360.000000,-333.333344,-330.000000,-70.003502,-8.330417,33.881695,1005
-191.846512,167.865707,1007.194214,357.777771,-342.222229,-330.000000,-11.970598,15.190760,-0.420021,1006
-215.827332,143.884888,887.290100,360.000000,-335.555542,-335.000000,14.350718,22.541128,-10.640532,1007
-311.750580,167.865707,911.270935,360.000000,-337.777771,-327.500000,42.982151,42.352119,-21.981100,1008
-311.750580,119.904068,839.328491,360.000000,-326.666656,-332.500000,48.652431,65.453270,-19.810991,1009
-407.673828,167.865707,827.338074,364.444458,-335.555542,-330.000000,46.132309,56.912846,-4.970249,1010
-431.654663,95.923256,767.386047,364.444458,-326.666656,-330.000000,37.941898,54.252712,3.990200,1011
-479.616272,-107.913666,743.405273,368.888885,-328.888885,-330.000000,27.301365,48.932446,13.300665,1012
-527.577942,-167.865707,551.558716,366.666656,-326.666656,-330.000000,13.860693,28.911446,8.120406,1013
-491.606689,-287.769775,587.529968,362.222229,-328.888885,-332.500000,-11.550578,14.910746,-10.150508,1014
-839.328491,-479.616272,599.520386,368.888885,-324.444458,-332.500000,-38.011902,-7.840392,-22.891146,1015
-743.405273,-467.625885,599.520386,364.444458,-326.666656,-332.500000,-56.492825,-41.022053,-26.461323,1016
-503.597107,-263.788971,647.481995,366.666656,-324.444458,-337.500000,-88.694435,-46.412323,13.440672,1017
-455.635468,-251.798553,767.386047,362.222229,-328.888885,-337.500000,-113.895699,-54.392719,13.720686,1018
-599.520386,-119.904068,647.481995,357.777771,-331.111115,-342.500000,-117.185860,-61.813091,26.881344,1019
-467.625885,11.990407,695.443604,348.888885,-333.333344,-345.000000,-136.296814,-93.874695,59.152958,1020
-359.712219,-119.904068,887.290100,346.666656,-340.000000,-350.000000,-155.897797,-69.373466,46.272316,1021
-359.712219,-83.932854,863.309326,340.000000,-346.666656,-342.500000,-151.767593,-40.252014,26.671333,1022
-263.788971,47.961628,1079.136597,333.333344,-340.000000,-355.000000,-142.667130,-38.291916,41.022053,1023
-347.721802,203.836914,935.251770,324.444458,-346.666656,-347.500000,-138.816940,-45.852295,40.252014,1024
-263.788971,-71.942444,911.270935,331.111115,-342.222229,-365.000000,-132.796646,-27.091354,9.800490,1025
-239.808136,0.000000,887.290100,322.222229,-346.666656,-357.500000,-115.015755,-23.591179,-7.280364,1026
-263.788971,23.980814,839.328491,322.222229,-346.666656,-365.000000,-107.245361,-32.341618,-1.890095,1027
-299.760193,11.990407,863.309326,320.000000,-346.666656,-365.000000,-108.225410,-34.371719,-0.560028,1028
-191.846512,-167.865707,791.366882,315.555542,-346.666656,-367.500000,-113.265663,-34.371719,2.450123,1029
-143.884888,-191.846512,815.347656,306.666656,-357.777771,-367.500000,-113.685684,-39.761990,4.340217,1030
-263.788971,-47.961628,911.270935,306.666656,-351.111115,-372.500000,-113.615685,-47.252361,6.020301,1031
-335.731415,11.990407,875.299744,300.000000,-353.333344,-370.000000,-115.435776,-51.102554,7.140357,1032
-215.827332,95.923256,863.309326,297.777771,-353.333344,-375.000000,-105.565277,-43.822193,14.700735,1033
-227.817734,23.980814,911.270935,297.777771,-362.222229,-375.000000,-99.614983,-30.661533,26.111305,1034
-359.712219,-47.961628,935.251770,293.333344,-355.555542,-377.500000,-103.465172,-34.931747,35.001751,1035
-287.769775,-35.971222,899.280518,293.333344,-360.000000,-377.500000,-111.375572,-48.302414,40.042004,1036
-143.884888,167.865707,911.270935,282.222229,-362.222229,-380.000000,-116.485825,-55.792789,50.752537,1037
-23.980814,131.894485,983.213379,273.333344,-368.888885,-382.500000,-113.755692,-52.712635,60.483025,1038
215.827332,167.865707,1103.117432,273.333344,-364.444458,-385.000000,-107.315369,-56.352818,62.723137,1039
35.971222,119.904068,971.222961,271.111115,-375.555542,-382.500000,-106.055305,-56.632832,54.462723,1040
-215.827332,11.990407,863.309326,268.888885,-371.111115,-387.500000,-48.092403,-9.590480,25.201260,1041
23.980814,-191.846512,1007.194214,262.222229,-375.555542,-382.500000,-48.302414,-12.110605,22.471125,1042
-95.923256,-11.990407,911.270935,266.666656,-373.333344,-390.000000,-63.773190,-32.411621,34.931747,1043
-311.750580,0.000000,839.328491,260.000000,-377.777771,-382.500000,-59.222961,-27.091354,30.661533,1044
-203.836914,11.990407,887.290100,260.000000,-377.777771,-387.500000,-39.341969,-10.430522,11.900595,1045
-191.846512,95.923256,887.290100,257.777771,-380.000000,-387.500000,-40.602032,-12.810640,7.000350,1046
-299.760193,71.942444,887.290100,251.111115,-377.777771,-387.500000,-52.362617,-23.031153,6.790339,1047
-191.846512,47.961628,911.270935,251.111115,-384.444458,-382.500000,-49.842491,-22.261114,0.490025,1048
-155.875290,35.971222,863.309326,255.555557,-377.777771,-390.000000,-52.012600,-20.721037,0.140007,1049
-191.846512,47.961628,887.290100,248.888885,-382.222229,-385.000000,-52.292614,-15.260763,-2.170109,1050
-191.846512,83.932854,899.280518,248.888885,-377.777771,-390.000000,-53.132656,-15.750788,-7.980399,1051
0.000000,167.865707,959.232544,246.666672,-384.444458,-385.000000,-38.571930,-10.150508,-12.530626,1052
-47.961628,107.913666,923.261353,244.444443,-382.222229,-392.500000,-19.180960,-5.040252,-13.930696,1053
-191.846512,71.942444,935.251770,246.666672,-380.000000,-387.500000,-11.760588,-3.220161,-13.300665,1054
-191.846512,47.961628,911.270935,244.444443,-375.555542,-392.500000,-16.380819,-5.040252,-12.110605,1055
-143.884888,47.961628,863.309326,246.666672,-380.000000,-392.500000,-19.110956,-5.460273,-13.860693,1056
-107.913666,155.875290,887.290100,248.888885,-377.777771,-392.500000,-18.270914,-0.280014,-19.880995,1057
-71.942444,239.808136,527.577942,246.666672,-384.444458,-390.000000,-17.500875,8.750438,-22.611132,1058
-419.664246,-659.472412,743.405273,251.111115,-373.333344,-392.500000,83.374168,98.144905,-39.131958,1059
71.942444,215.827332,887.290100,257.777771,-366.666656,-395.000000,182.919144,194.609726,-132.516632,1060
-23.980814,191.846512,911.270935,257.777771,-362.222229,-397.500000,3.080154,17.920897,-65.523277,1061
191.846512,575.539551,623.501160,260.000000,-360.000000,-395.000000,-73.293663,-42.072105,-29.051453,1062
179.856110,311.750580,815.347656,255.555557,-366.666656,-392.500000,-50.612530,-6.440322,-29.191460,1063
-191.846512,-23.980814,911.270935,255.555557,-366.666656,-392.500000,-10.080504,9.730487,-37.661884,1064
-215.827332,-47.961628,875.299744,257.777771,-360.000000,-397.500000,-21.491076,1.190060,-37.661884,1065
-215.827332,-215.827332,839.328491,255.555557,-362.222229,-395.000000,-42.422123,-4.270214,-37.171860,1066
-191.846512,-59.952034,899.280518,255.555557,-357.777771,-402.500000,-56.632832,-8.540427,-38.501926,1067
-167.865707,47.961628,911.270935,255.555557,-366.666656,-395.000000,-63.773190,-20.581030,-33.951698,1068
-179.856110,-11.990407,875.299744,253.333328,-357.777771,-400.000000,-65.453270,-19.670984,-34.721737,1069
-71.942444,47.961628,863.309326,251.111115,-362.222229,-397.500000,-65.593277,-8.610431,-37.381870,1070
11.990407,-263.788971,983.213379,253.333328,-360.000000,-402.500000,-57.542877,0.140007,-39.411972,1071
-71.942444,263.788971,767.386047,246.666672,-362.222229,-400.000000,-53.132656,-18.900946,-64.963249,1072
-119.904068,227.817734,827.338074,253.333328,-355.555542,-402.500000,-52.292614,-20.791040,-80.784042,1073
-143.884888,239.808136,935.251770,246.666672,-360.000000,-400.000000,-33.951698,-2.520126,-52.782639,1074
-83.932854,215.827332,935.251770,255.555557,-353.333344,-405.000000,-15.610781,13.020651,-16.170809,1075
47.961628,119.904068,911.270935,248.888885,-357.777771,-397.500000,25.061253,38.851944,-11.270564,1076
-239.808136,-71.942444,1007.194214,253.333328,-348.888885,-402.500000,40.322018,49.632481,-10.430522,1077
-191.846512,-71.942444,887.290100,253.333328,-357.777771,-402.500000,7.280364,11.480575,-5.040252,1078
-131.894485,23.980814,887.290100,253.333328,-348.888885,-405.000000,-16.240812,8.330417,0.700035,1079
-95.923256,0.000000,887.290100,255.555557,-351.111115,-407.500000,-15.890795,12.810640,-2.450123,1080
-119.904068,47.961628,887.290100,253.333328,-348.888885,-407.500000,-11.270564,13.090654,-4.270214,1081
-167.865707,47.961628,863.309326,248.888885,-360.000000,-402.500000,-2.940147,12.600630,-4.270214,1082
-155.875290,11.990407,911.270935,255.555557,-348.888885,-405.000000,-4.410221,9.170459,-6.580329,1083
-143.884888,-23.980814,863.309326,248.888885,-351.111115,-402.500000,-9.030452,3.850193,-9.380469,1084
-95.923256,0.000000,863.309326,253.333328,-346.666656,-407.500000,-7.350368,3.710186,-10.990550,1085
0.000000,-935.251770,1031.175049,248.888885,-353.333344,-400.000000,3.640182,17.500875,-15.820791,1086
-47.961628,-647.481995,959.232544,251.111115,-344.444458,-407.500000,9.800490,5.040252,-54.532726,1087
-191.846512,287.769775,791.366882,255.555557,-351.111115,-405.000000,-5.950297,0.490025,-85.404274,1088
-215.827332,251.798553,863.309326,260.000000,-346.666656,-407.500000,2.100105,15.330767,-53.272663,1089
23.980814,167.865707,839.328491,253.333328,-348.888885,-402.500000,7.420371,15.120756,-25.271263,1090
-11.990407,95.923256,887.290100,260.000000,-340.000000,-407.500000,8.750438,14.000700,-19.250963,1091
47.961628,167.865707,935.251770,251.111115,-346.666656,-402.500000,14.770739,14.910746,-14.000700,1092
-59.952034,47.961628,899.280518,266.666656,-340.000000,-407.500000,16.590830,16.170809,-9.030452,1093
-191.846512,0.000000,935.251770,257.777771,-342.222229,-405.000000,19.110956,19.880995,-4.410221,1094
-203.836914,-23.980814,875.299744,257.777771,-335.555542,-407.500000,5.460273,11.970598,-2.940147,1095
-167.865707,-23.980814,887.290100,260.000000,-340.000000,-407.500000,-16.380819,1.120056,-0.210010,1096
-143.884888,0.000000,899.280518,260.000000,-342.222229,-407.500000,-27.931396,-11.340568,2.940147,1097
-119.904068,23.980814,959.232544,255.555557,-348.888885,-402.500000,-30.311516,-15.330767,6.510325,1098
-131.894485,11.990407,959.232544,255.555557,-337.777771,-405.000000,-29.121456,-14.980749,10.710536,1099
-95.923256,-23.980814,863.309326,248.888885,-348.888885,-407.500000,-33.881695,-9.520476,13.440672,1100
-143.884888,-11.990407,911.270935,257.777771,-346.666656,-412.500000,-37.731888,-8.330417,15.750788,1101
-71.942444,71.942444,887.290100,248.888885,-346.666656,-407.500000,-41.442074,-8.960448,14.560728,1102
-47.961628,11.990407,887.290100,251.111115,-344.444458,-417.500000,-32.411621,-4.620231,13.510675,1103
47.961628,-335.731415,887.290100,248.888885,-344.444458,-410.000000,-18.620932,1.050053,3.150157,1104
-131.894485,-95.923256,875.299744,248.888885,-346.666656,-407.500000,-14.420721,0.910046,-14.490725,1105
-239.808136,-47.961628,863.309326,244.444443,-348.888885,-407.500000,-12.880644,4.690235,-17.640882,1106
-143.884888,107.913666,875.299744,251.111115,-340.000000,-410.000000,-19.530977,-1.750087,-21.351068,1107
-23.980814,215.827332,863.309326,246.666672,-342.222229,-410.000000,-17.850893,3.570179,-17.220861,1108
-35.971222,107.913666,923.261353,251.111115,-346.666656,-415.000000,-13.790689,4.690235,-9.310466,1109
0.000000,71.942444,887.290100,248.888885,-346.666656,-410.000000,-14.070704,0.420021,-6.720336,1110
0.000000,71.942444,899.280518,248.888885,-340.000000,-410.000000,-10.920547,0.000000,-6.720336,1111
47.961628,143.884888,959.232544,248.888885,-346.666656,-412.500000,-3.640182,3.640182,-5.530277,1112
-35.971222,35.971222,887.290100,248.888885,-337.777771,-415.000000,0.000000,6.090304,-4.760238,1113
-47.961628,0.000000,911.270935,248.888885,-342.222229,-415.000000,-2.590130,4.760238,-6.160308,1114
-71.942444,-11.990407,923.261353,248.888885,-337.777771,-417.500000,-2.660133,3.920196,-7.630382,1115
-143.884888,0.000000,911.270935,246.666672,-346.666656,-407.500000,-2.450123,3.990200,-6.020301,1116
-71.942444,47.961628,923.261353,246.666672,-337.777771,-415.000000,1.260063,4.620231,-5.040252,1117
-47.961628,23.980814,887.290100,248.888885,-340.000000,-410.000000,4.340217,5.880294,-3.850193,1118
-119.904068,-11.990407,911.270935,251.111115,-337.777771,-417.500000,10.150508,7.910396,-1.470073,1119
-143.884888,-47.961628,887.290100,248.888885,-340.000000,-410.000000,10.360518,6.580329,-0.490025,1120
-143.884888,0.000000,911.270935,248.888885,-342.222229,-412.500000,4.970249,2.380119,0.350018,1121
-47.961628,0.000000,839.328491,246.666672,-340.000000,-412.500000,-4.690235,-3.710186,1.260063,1122
-71.942444,0.000000,875.299744,251.111115,-337.777771,-417.500000,-6.230311,-4.830242,2.870144,1123
