ACC_X,ACC_Y,ACC_Z,MAG_X,MAG_Y,MAG_Z, GYRO_X,GYRO_Y,GYRO_Z,COUNT
0,0,1000,0,0,0,0,0,0,0
0,0,1000,0,0,0,0,0,0,1
0,0,1000,0,0,0,0,0,0,2
0,0,1000,0,0,0,0,0,0,3
0,0,1000,0,0,0,0,0,0,4
0,0,1000,0,0,0,0,0,0,5
0,0,1000,0,0,0,0,0,0,6
0,0,1000,0,0,0,0,0,0,7
0,0,1000,0,0,0,0,0,0,8
0,0,1000,0,0,0,0,0,0,9
0,0,1000,0,0,0,0,0,0,10
0,0,1000,0,0,0,0,0,0,11
0,0,1000,0,0,0,0,0,0,12
0,0,1000,0,0,0,0,0,0,13
0,0,1000,0,0,0,0,0,0,14
0,0,1000,0,0,0,0,0,0,15
0,0,1000,0,0,0,0,0,0,16
0,0,1000,0,0,0,0,0,0,17
0,0,1000,0,0,0,0,0,0,18
0,0,1000,0,0,0,0,0,0,19
0,0,1000,0,0,0,0,0,0,20
0,0,1000,0,0,0,0,0,0,21
0,0,1000,0,0,0,0,0,0,22
0,0,1000,0,0,0,0,0,0,23
0,0,1000,0,0,0,0,0,0,24
0,0,1000,0,0,0,0,0,0,25
0,0,1000,0,0,0,0,0,0,26
0,0,1000,0,0,0,0,0,0,27
0,0,1000,0,0,0,0,0,0,28
0,0,1000,0,0,0,0,0,0,29
0,0,1000,0,0,0,0,0,0,30
0,0,1000,0,0,0,0,0,0,31
0,0,1000,0,0,0,0,0,0,32
0,0,1000,0,0,0,0,0,0,33
0,0,1000,0,0,0,0,0,0,34
0,0,1000,0,0,0,0,0,0,35
0,0,1000,0,0,0,0,0,0,36
0,0,1000,0,0,0,0,0,0,37
0,0,1000,0,0,0,0,0,0,38
0,0,1000,0,0,0,0,0,0,39
0,0,1000,0,0,0,0,0,0,40
0,0,1000,0,0,0,0,0,0,41
0,0,1000,0,0,0,0,0,0,42
0,0,1000,0,0,0,0,0,0,43
0,0,1000,0,0,0,0,0,0,44
0,0,1000,0,0,0,0,0,0,45
0,0,1000,0,0,0,0,0,0,46
0,0,1000,0,0,0,0,0,0,47
0,0,1000,0,0,0,0,0,0,48
0,0,1000,0,0,0,0,0,0,49
0,0,1000,0,0,0,0,0,0,50
0,0,1000,0,0,0,0,0,0,51
0,0,1000,0,0,0,0,0,0,52
0,0,1000,0,0,0,0,0,0,53
0,0,1000,0,0,0,0,0,0,54
0,0,1000,0,0,0,0,0,0,55
0,0,1000,0,0,0,0,0,0,56
0,0,1000,0,0,0,0,0,0,57
0,0,1000,0,0,0,0,0,0,58
0,0,1000,0,0,0,0,0,0,59
0,0,1000,0,0,0,0,0,0,60
0,0,1000,0,0,0,0,0,0,61
0,0,1000,0,0,0,0,0,0,62
0,0,1000,0,0,0,0,0,0,63
0,0,1000,0,0,0,0,0,0,64
0,0,1000,0,0,0,0,0,0,65
0,0,1000,0,0,0,0,0,0,66
0,0,1000,0,0,0,0,0,0,67
0,0,1000,0,0,0,0,0,0,68
0,0,1000,0,0,0,0,0,0,69
0,0,1000,0,0,0,0,0,0,70
0,0,1000,0,0,0,0,0,0,71
0,0,1000,0,0,0,0,0,0,72
0,0,1000,0,0,0,0,0,0,73
0,0,1000,0,0,0,0,0,0,74
0,0,1000,0,0,0,0,0,0,75
0,0,1000,0,0,0,0,0,0,76
0,0,1000,0,0,0,0,0,0,77
0,0,1000,0,0,0,0,0,0,78
0,0,1000,0,0,0,0,0,0,79
0,0,1000,0,0,0,0,0,0,80
0,0,1000,0,0,0,0,0,0,81
0,0,1000,0,0,0,0,0,0,82
0,0,1000,0,0,0,0,0,0,83
0,0,1000,0,0,0,0,0,0,84
0,0,1000,0,0,0,0,0,0,85
0,0,1000,0,0,0,0,0,0,86
0,0,1000,0,0,0,0,0,0,87
0,0,1000,0,0,0,0,0,0,88
0,0,1000,0,0,0,0,0,0,89
0,0,1000,0,0,0,0,0,0,90
0,0,1000,0,0,0,0,0,0,91
0,0,1000,0,0,0,0,0,0,92
0,0,1000,0,0,0,0,0,0,93
0,0,1000,0,0,0,0,0,0,94
0,0,1000,0,0,0,0,0,0,95
0,0,1000,0,0,0,0,0,0,96
0,0,1000,0,0,0,0,0,0,97
0,0,1000,0,0,0,0,0,0,98
0,0,1000,0,0,0,0,0,0,99
0,0,1000,0,0,0,0,0,0,100
0,0,1000,0,0,0,0,0,0,101
0,0,1000,0,0,0,0,0,0,102
0,0,1000,0,0,0,0,0,0,103
0,0,1000,0,0,0,0,0,0,104
0,0,1000,0,0,0,0,0,0,105
0,0,1000,0,0,0,0,0,0,106
0,0,1000,0,0,0,0,0,0,107
0,0,1000,0,0,0,0,0,0,108
0,0,1000,0,0,0,0,0,0,109
0,0,1000,0,0,0,0,0,0,110
0,0,1000,0,0,0,0,0,0,111
0,0,1000,0,0,0,0,0,0,112
0,0,1000,0,0,0,0,0,0,113
0,0,1000,0,0,0,0,0,0,114
0,0,1000,0,0,0,0,0,0,115
0,0,1000,0,0,0,0,0,0,116
0,0,1000,0,0,0,0,0,0,117
0,0,1000,0,0,0,0,0,0,118
0,0,1000,0,0,0,0,0,0,119
0,0,1000,0,0,0,0,0,0,120
0,0,1000,0,0,0,0,0,0,121
0,0,1000,0,0,0,0,0,0,122
0,0,1000,0,0,0,0,0,0,123
0,0,1000,0,0,0,0,0,0,124
0,0,1000,0,0,0,0,0,0,125
0,0,1000,0,0,0,0,0,0,126
0,0,1000,0,0,0,0,0,0,127
0,0,1000,0,0,0,0,0,0,128
0,0,1000,0,0,0,0,0,0,129
0,0,1000,0,0,0,0,0,0,130
0,0,1000,0,0,0,0,0,0,131
0,0,1000,0,0,0,0,0,0,132
0,0,1000,0,0,0,0,0,0,133
0,0,1000,0,0,0,0,0,0,134
0,0,1000,0,0,0,0,0,0,135
0,0,1000,0,0,0,0,0,0,136
0,0,1000,0,0,0,0,0,0,137
0,0,1000,0,0,0,0,0,0,138
0,0,1000,0,0,0,0,0,0,139
0,0,1000,0,0,0,0,0,0,140
0,0,1000,0,0,0,0,0,0,141
0,0,1000,0,0,0,0,0,0,142
0,0,1000,0,0,0,0,0,0,143
0,0,1000,0,0,0,0,0,0,144
0,0,1000,0,0,0,0,0,0,145
0,0,1000,0,0,0,0,0,0,146
0,0,1000,0,0,0,0,0,0,147
0,0,1000,0,0,0,0,0,0,148
0,0,1000,0,0,0,0,0,0,149
0,0,1000,0,0,0,0,0,0,150
0,0,1000,0,0,0,0,0,0,151
0,0,1000,0,0,0,0,0,0,152
0,0,1000,0,0,0,0,0,0,153
0,0,1000,0,0,0,0,0,0,154
0,0,1000,0,0,0,0,0,0,155
0,0,1000,0,0,0,0,0,0,156
0,0,1000,0,0,0,0,0,0,157
0,0,1000,0,0,0,0,0,0,158
0,0,1000,0,0,0,0,0,0,159
0,0,1000,0,0,0,0,0,0,160
0,0,1000,0,0,0,0,0,0,161
0,0,1000,0,0,0,0,0,0,162
0,0,1000,0,0,0,0,0,0,163
0,0,1000,0,0,0,0,0,0,164
0,0,1000,0,0,0,0,0,0,165
0,0,1000,0,0,0,0,0,0,166
0,0,1000,0,0,0,0,0,0,167
0,0,1000,0,0,0,0,0,0,168
0,0,1000,0,0,0,0,0,0,169
0,0,1000,0,0,0,0,0,0,170
0,0,1000,0,0,0,0,0,0,171
0,0,1000,0,0,0,0,0,0,172
0,0,1000,0,0,0,0,0,0,173
0,0,1000,0,0,0,0,0,0,174
0,0,1000,0,0,0,0,0,0,175
0,0,1000,0,0,0,0,0,0,176
0,0,1000,0,0,0,0,0,0,177
0,0,1000,0,0,0,0,0,0,178
0,0,1000,0,0,0,0,0,0,179
0,0,1000,0,0,0,0,0,0,180
0,0,1000,0,0,0,0,0,0,181
0,0,1000,0,0,0,0,0,0,182
0,0,1000,0,0,0,0,0,0,183
0,0,1000,0,0,0,0,0,0,184
0,0,1000,0,0,0,0,0,0,185
0,0,1000,0,0,0,0,0,0,186
0,0,1000,0,0,0,0,0,0,187
0,0,1000,0,0,0,0,0,0,188
0,0,1000,0,0,0,0,0,0,189
0,0,1000,0,0,0,0,0,0,190
0,0,1000,0,0,0,0,0,0,191
0,0,1000,0,0,0,0,0,0,192
0,0,1000,0,0,0,0,0,0,193
0,0,1000,0,0,0,0,0,0,194
0,0,1000,0,0,0,0,0,0,195
0,0,1000,0,0,0,0,0,0,196
0,0,1000,0,0,0,0,0,0,197
0,0,1000,0,0,0,0,0,0,198
0,0,1000,0,0,0,0,0,0,199
0,0,1100,0,0,0,0,0,"1,8",200
0,0,1100,0,0,0,0,0,"1,8",201
0,0,1100,0,0,0,0,0,"1,8",202
0,0,1100,0,0,0,0,0,"1,8",203
0,0,1100,0,0,0,0,0,"1,8",204
0,0,1100,0,0,0,0,0,"1,8",205
0,0,1100,0,0,0,0,0,"1,8",206
0,0,1100,0,0,0,0,0,"1,8",207
0,0,1100,0,0,0,0,0,"1,8",208
0,0,1100,0,0,0,0,0,"1,8",209
0,0,1100,0,0,0,0,0,"1,8",210
0,0,1100,0,0,0,0,0,"1,8",211
0,0,1100,0,0,0,0,0,"1,8",212
0,0,1100,0,0,0,0,0,"1,8",213
0,0,1100,0,0,0,0,0,"1,8",214
0,0,1100,0,0,0,0,0,"1,8",215
0,0,1100,0,0,0,0,0,"1,8",216
0,0,1100,0,0,0,0,0,"1,8",217
0,0,1100,0,0,0,0,0,"1,8",218
0,0,1100,0,0,0,0,0,"1,8",219
0,0,1100,0,0,0,0,0,"1,8",220
0,0,1100,0,0,0,0,0,"1,8",221
0,0,1100,0,0,0,0,0,"1,8",222
0,0,1100,0,0,0,0,0,"1,8",223
0,0,1100,0,0,0,0,0,"1,8",224
0,0,1100,0,0,0,0,0,"1,8",225
0,0,1100,0,0,0,0,0,"1,8",226
0,0,1100,0,0,0,0,0,"1,8",227
0,0,1100,0,0,0,0,0,"1,8",228
0,0,1100,0,0,0,0,0,"1,8",229
0,0,1100,0,0,0,0,0,"1,8",230
0,0,1100,0,0,0,0,0,"1,8",231
0,0,1100,0,0,0,0,0,"1,8",232
0,0,1100,0,0,0,0,0,"1,8",233
0,0,1100,0,0,0,0,0,"1,8",234
0,0,1100,0,0,0,0,0,"1,8",235
0,0,1100,0,0,0,0,0,"1,8",236
0,0,1100,0,0,0,0,0,"1,8",237
0,0,1100,0,0,0,0,0,"1,8",238
0,0,1100,0,0,0,0,0,"1,8",239
0,0,1100,0,0,0,0,0,"1,8",240
0,0,1100,0,0,0,0,0,"1,8",241
0,0,1100,0,0,0,0,0,"1,8",242
0,0,1100,0,0,0,0,0,"1,8",243
0,0,1100,0,0,0,0,0,"1,8",244
0,0,1100,0,0,0,0,0,"1,8",245
0,0,1100,0,0,0,0,0,"1,8",246
0,0,1100,0,0,0,0,0,"1,8",247
0,0,1100,0,0,0,0,0,"1,8",248
0,0,1100,0,0,0,0,0,"1,8",249
0,0,1100,0,0,0,0,0,"1,8",250
0,0,1100,0,0,0,0,0,"1,8",251
0,0,1100,0,0,0,0,0,"1,8",252
0,0,1100,0,0,0,0,0,"1,8",253
0,0,1100,0,0,0,0,0,"1,8",254
0,0,1100,0,0,0,0,0,"1,8",255
0,0,1100,0,0,0,0,0,"1,8",256
0,0,1100,0,0,0,0,0,"1,8",257
0,0,1100,0,0,0,0,0,"1,8",258
0,0,1100,0,0,0,0,0,"1,8",259
0,0,1100,0,0,0,0,0,"1,8",260
0,0,1100,0,0,0,0,0,"1,8",261
0,0,1100,0,0,0,0,0,"1,8",262
0,0,1100,0,0,0,0,0,"1,8",263
0,0,1100,0,0,0,0,0,"1,8",264
0,0,1100,0,0,0,0,0,"1,8",265
0,0,1100,0,0,0,0,0,"1,8",266
0,0,1100,0,0,0,0,0,"1,8",267
0,0,1100,0,0,0,0,0,"1,8",268
0,0,1100,0,0,0,0,0,"1,8",269
0,0,1100,0,0,0,0,0,"1,8",270
0,0,1100,0,0,0,0,0,"1,8",271
0,0,1100,0,0,0,0,0,"1,8",272
0,0,1100,0,0,0,0,0,"1,8",273
0,0,1100,0,0,0,0,0,"1,8",274
0,0,1100,0,0,0,0,0,"1,8",275
0,0,1100,0,0,0,0,0,"1,8",276
0,0,1100,0,0,0,0,0,"1,8",277
0,0,1100,0,0,0,0,0,"1,8",278
0,0,1100,0,0,0,0,0,"1,8",279
0,0,1100,0,0,0,0,0,"1,8",280
0,0,1100,0,0,0,0,0,"1,8",281
0,0,1100,0,0,0,0,0,"1,8",282
0,0,1100,0,0,0,0,0,"1,8",283
0,0,1100,0,0,0,0,0,"1,8",284
0,0,1100,0,0,0,0,0,"1,8",285
0,0,1100,0,0,0,0,0,"1,8",286
0,0,1100,0,0,0,0,0,"1,8",287
0,0,1100,0,0,0,0,0,"1,8",288
0,0,1100,0,0,0,0,0,"1,8",289
0,0,1100,0,0,0,0,0,"1,8",290
0,0,1100,0,0,0,0,0,"1,8",291
0,0,1100,0,0,0,0,0,"1,8",292
0,0,1100,0,0,0,0,0,"1,8",293
0,0,1100,0,0,0,0,0,"1,8",294
0,0,1100,0,0,0,0,0,"1,8",295
0,0,1100,0,0,0,0,0,"1,8",296
0,0,1100,0,0,0,0,0,"1,8",297
0,0,1100,0,0,0,0,0,"1,8",298
0,0,1100,0,0,0,0,0,"1,8",299
0,0,900,0,0,0,0,0,"1,8",300
0,0,900,0,0,0,0,0,"1,8",301
0,0,900,0,0,0,0,0,"1,8",302
0,0,900,0,0,0,0,0,"1,8",303
0,0,900,0,0,0,0,0,"1,8",304
0,0,900,0,0,0,0,0,"1,8",305
0,0,900,0,0,0,0,0,"1,8",306
0,0,900,0,0,0,0,0,"1,8",307
0,0,900,0,0,0,0,0,"1,8",308
0,0,900,0,0,0,0,0,"1,8",309
0,0,900,0,0,0,0,0,"1,8",310
0,0,900,0,0,0,0,0,"1,8",311
0,0,900,0,0,0,0,0,"1,8",312
0,0,900,0,0,0,0,0,"1,8",313
0,0,900,0,0,0,0,0,"1,8",314
0,0,900,0,0,0,0,0,"1,8",315
0,0,900,0,0,0,0,0,"1,8",316
0,0,900,0,0,0,0,0,"1,8",317
0,0,900,0,0,0,0,0,"1,8",318
0,0,900,0,0,0,0,0,"1,8",319
0,0,900,0,0,0,0,0,"1,8",320
0,0,900,0,0,0,0,0,"1,8",321
0,0,900,0,0,0,0,0,"1,8",322
0,0,900,0,0,0,0,0,"1,8",323
0,0,900,0,0,0,0,0,"1,8",324
0,0,900,0,0,0,0,0,"1,8",325
0,0,900,0,0,0,0,0,"1,8",326
0,0,900,0,0,0,0,0,"1,8",327
0,0,900,0,0,0,0,0,"1,8",328
0,0,900,0,0,0,0,0,"1,8",329
0,0,900,0,0,0,0,0,"1,8",330
0,0,900,0,0,0,0,0,"1,8",331
0,0,900,0,0,0,0,0,"1,8",332
0,0,900,0,0,0,0,0,"1,8",333
0,0,900,0,0,0,0,0,"1,8",334
0,0,900,0,0,0,0,0,"1,8",335
0,0,900,0,0,0,0,0,"1,8",336
0,0,900,0,0,0,0,0,"1,8",337
0,0,900,0,0,0,0,0,"1,8",338
0,0,900,0,0,0,0,0,"1,8",339
0,0,900,0,0,0,0,0,"1,8",340
0,0,900,0,0,0,0,0,"1,8",341
0,0,900,0,0,0,0,0,"1,8",342
0,0,900,0,0,0,0,0,"1,8",343
0,0,900,0,0,0,0,0,"1,8",344
0,0,900,0,0,0,0,0,"1,8",345
0,0,900,0,0,0,0,0,"1,8",346
0,0,900,0,0,0,0,0,"1,8",347
0,0,900,0,0,0,0,0,"1,8",348
0,0,900,0,0,0,0,0,"1,8",349
0,0,900,0,0,0,0,0,"1,8",350
0,0,900,0,0,0,0,0,"1,8",351
0,0,900,0,0,0,0,0,"1,8",352
0,0,900,0,0,0,0,0,"1,8",353
0,0,900,0,0,0,0,0,"1,8",354
0,0,900,0,0,0,0,0,"1,8",355
0,0,900,0,0,0,0,0,"1,8",356
0,0,900,0,0,0,0,0,"1,8",357
0,0,900,0,0,0,0,0,"1,8",358
0,0,900,0,0,0,0,0,"1,8",359
0,0,900,0,0,0,0,0,"1,8","1,8"
0,0,900,0,0,0,0,0,"1,8",361
0,0,900,0,0,0,0,0,"1,8",362
0,0,900,0,0,0,0,0,"1,8",363
0,0,900,0,0,0,0,0,"1,8",364
0,0,900,0,0,0,0,0,"1,8",365
0,0,900,0,0,0,0,0,"1,8",366
0,0,900,0,0,0,0,0,"1,8",367
0,0,900,0,0,0,0,0,"1,8",368
0,0,900,0,0,0,0,0,"1,8",369
0,0,900,0,0,0,0,0,"1,8",370
0,0,900,0,0,0,0,0,"1,8",371
0,0,900,0,0,0,0,0,"1,8",372
0,0,900,0,0,0,0,0,"1,8",373
0,0,900,0,0,0,0,0,"1,8",374
0,0,900,0,0,0,0,0,"1,8",375
0,0,900,0,0,0,0,0,"1,8",376
0,0,900,0,0,0,0,0,"1,8",377
0,0,900,0,0,0,0,0,"1,8",378
0,0,900,0,0,0,0,0,"1,8",379
0,0,900,0,0,0,0,0,"1,8",380
0,0,900,0,0,0,0,0,"1,8",381
0,0,900,0,0,0,0,0,"1,8",382
0,0,900,0,0,0,0,0,"1,8",383
0,0,900,0,0,0,0,0,"1,8",384
0,0,900,0,0,0,0,0,"1,8",385
0,0,900,0,0,0,0,0,"1,8",386
0,0,900,0,0,0,0,0,"1,8",387
0,0,900,0,0,0,0,0,"1,8",388
0,0,900,0,0,0,0,0,"1,8",389
0,0,900,0,0,0,0,0,"1,8",390
0,0,900,0,0,0,0,0,"1,8",391
0,0,900,0,0,0,0,0,"1,8",392
0,0,900,0,0,0,0,0,"1,8",393
0,0,900,0,0,0,0,0,"1,8",394
0,0,900,0,0,0,0,0,"1,8",395
0,0,900,0,0,0,0,0,"1,8",396
0,0,900,0,0,0,0,0,"1,8",397
0,0,900,0,0,0,0,0,"1,8",398
0,0,900,0,0,0,0,0,"1,8",399
0,0,1000,0,0,0,0,"0,45",0,400
"-7,8539008887",0,"999,9691576448",0,0,0,0,"0,45",0,401
"-15,7073173118",0,"999,8766324817",0,0,0,0,"0,45",0,402
"-23,5597648336",0,"999,722430218",0,0,0,0,"0,45",0,403
"-31,4107590781",0,"999,5065603657",0,0,0,0,"0,45",0,404
"-39,2598157591",0,"999,2290362407",0,0,0,0,"0,45",0,405
"-47,1064507096",0,"998,889874962",0,0,0,0,"0,45",0,406
"-54,9501799124",0,"998,4890974505",0,0,0,0,"0,45",0,407
"-62,7905195293",0,"998,0267284283",0,0,0,0,"0,45",0,408
"-70,6269859312",0,"997,5027964163",0,0,0,0,"0,45",0,409
"-78,4590957278",0,"996,9173337331",0,0,0,0,"0,45",0,410
"-86,2863657979",0,"996,2703764929",0,0,0,0,"0,45",0,411
"-94,1083133185",0,"995,5619646031",0,0,0,0,"0,45",0,412
"-101,9244557951",0,"994,7921417617",0,0,0,0,"0,45",0,413
"-109,734311091",0,"993,9609554552",0,0,0,0,"0,45",0,414
"-117,5373974578",0,"993,0684569549",0,0,0,0,"0,45",0,415
"-125,3332335643",0,"992,1147013145",0,0,0,0,"0,45",0,416
"-133,1213385266",0,"991,099747366",0,0,0,0,"0,45",0,417
"-140,9012319376",0,"990,0236577166",0,0,0,0,"0,45",0,418
"-148,6724338969",0,"988,8864987445",0,0,0,0,"0,45",0,419
"-156,4344650402",0,"987,6883405951",0,0,0,0,"0,45",0,420
"-164,1868465689",0,"986,4292571765",0,0,0,0,"0,45",0,421
"-171,9291002794",0,"985,1093261548",0,0,0,0,"0,45",0,422
"-179,6607485932",0,"983,7286289495",0,0,0,0,"0,45",0,423
"-187,3813145857",0,"982,2872507287",0,0,0,0,"0,45",0,424
"-195,0903220161",0,"980,7852804032",0,0,0,0,"0,45",0,425
"-202,7872953565",0,"979,2228106218",0,0,0,0,"0,45",0,426
"-210,4717598213",0,"977,5999377648",0,0,0,0,"0,45",0,427
"-218,1432413965",0,"975,9167619387",0,0,0,0,"0,45",0,428
"-225,8012668691",0,"974,1733869699",0,0,0,0,"0,45",0,429
"-233,4453638559",0,"972,3699203977",0,0,0,0,"0,45",0,430
"-241,075060833",0,"970,5064734685",0,0,0,0,"0,45",0,431
"-248,6898871649",0,"968,5831611286",0,0,0,0,"0,45",0,432
"-256,289373133",0,"966,6001020169",0,0,0,0,"0,45",0,433
"-263,8730499654",0,"964,5574184578",0,0,0,0,"0,45",0,434
"-271,4404498651",0,"962,4552364536",0,0,0,0,"0,45",0,435
"-278,9911060392",0,"960,2936856769",0,0,0,0,"0,45",0,436
"-286,5245527278",0,"958,0728994623",0,0,0,0,"0,45",0,437
"-294,0403252323",0,"955,7930147983",0,0,0,0,"0,45",0,438
"-301,5379599445",0,"953,454172319",0,0,0,0,"0,45",0,439
"-309,0169943749",0,"951,0565162952",0,0,0,0,"0,45",0,440
"-316,4769671816",0,"948,6001946255",0,0,0,0,"0,45",0,441
"-323,9174181982",0,"946,0853588275",0,0,0,0,"0,45",0,442
"-331,3378884626",0,"943,5121640282",0,0,0,0,"0,45",0,443
"-338,7379202453",0,"940,8807689542",0,0,0,0,"0,45",0,444
"-346,1170570775",0,"938,1913359225",0,0,0,0,"0,45",0,445
"-353,4748437793",0,"935,4440308299",0,0,0,0,"0,45",0,446
"-360,8108264876",0,"932,6390231431",0,0,0,0,"0,45",0,447
"-368,1245526847",0,"929,7764858883",0,0,0,0,"0,45",0,448
"-375,4155712253",0,"926,8565956401",0,0,0,0,"0,45",0,449
"-382,6834323651",0,"923,8795325113",0,0,0,0,"0,45",0,450
"-389,9276877882",0,"920,845480141",0,0,0,0,"0,45",0,451
"-397,1478906348",0,"917,754625684",0,0,0,0,"0,45",0,452
"-404,3435955287",0,"914,6071597986",0,0,0,0,"0,45",0,453
"-411,5143586051",0,"911,4032766354",0,0,0,0,"0,45",0,454
"-418,6597375374",0,"908,1431738251",0,0,0,0,"0,45",0,455
"-425,7792915651",0,"904,827052466",0,0,0,0,"0,45",0,456
"-432,8725815204",0,"901,4551171122",0,0,0,0,"0,45",0,457
"-439,9391698559",0,"898,0275757606",0,0,0,0,"0,45",0,458
"-446,9786206711",0,"894,544639838",0,0,0,0,"0,45",0,459
"-453,9904997395",0,"891,0065241884",0,0,0,0,"0,45",0,460
"-460,9743745355",0,"887,4134470593",0,0,0,0,"0,45",0,461
"-467,9298142606",0,"883,7656300887",0,0,0,0,"0,45",0,462
"-474,8563898706",0,"880,0632982911",0,0,0,0,"0,45",0,463
"-481,7536741017",0,"876,3066800439",0,0,0,0,"0,45",0,464
"-488,621241497",0,"872,4960070728",0,0,0,0,"0,45",0,465
"-495,4586684324",0,"868,6315144382",0,0,0,0,"0,45",0,466
"-502,2655331434",0,"864,7134405202",0,0,0,0,"0,45",0,467
"-509,0414157504",0,"860,7420270039",0,0,0,0,"0,45",0,468
"-515,785898285",0,"856,7175188651",0,0,0,0,"0,45",0,469
"-522,4985647159",0,"852,6401643541",0,0,0,0,"0,45",0,470
"-529,1790009742",0,"848,5102149815",0,0,0,0,"0,45",0,471
"-535,826794979",0,"844,327925502",0,0,0,0,"0,45",0,472
"-542,4415366631",0,"840,0935538989",0,0,0,0,"0,45",0,473
"-549,0228179981",0,"835,8073613683",0,0,0,0,"0,45",0,474
"-555,5702330196",0,"831,4696123025",0,0,0,0,"0,45",0,475
"-562,0833778521",0,"827,0805742746",0,0,0,0,"0,45",0,476
"-568,5618507343",0,"822,6405180209",0,0,0,0,"0,45",0,477
"-575,0052520433",0,"818,149717425",0,0,0,0,"0,45",0,478
"-581,4131843198",0,"813,6084495008",0,0,0,0,"0,45",0,479
"-587,7852522925",0,"809,0169943749",0,0,0,0,"0,45",0,480
"-594,121062902",0,"804,3756352701",0,0,0,0,"0,45",0,481
"-600,4202253259",0,"799,6846584871",0,0,0,0,"0,45",0,482
"-606,682351002",0,"794,9443533875",0,0,0,0,"0,45",0,483
"-612,907053653",0,"790,1550123757",0,0,0,0,"0,45",0,484
"-619,0939493098",0,"785,3169308807",0,0,0,0,"0,45",0,485
"-625,2426563357",0,"780,4304073383",0,0,0,0,"0,45",0,486
"-631,3527954494",0,"775,4957431722",0,0,0,0,"0,45",0,487
"-637,4239897487",0,"770,5132427758",0,0,0,0,"0,45",0,488
"-643,4558647338",0,"765,4832134931",0,0,0,0,"0,45",0,489
"-649,4480483302",0,"760,4059656",0,0,0,0,"0,45",0,490
"-655,4001709118",0,"755,2818122852",0,0,0,0,"0,45",0,491
"-661,3118653237",0,"750,1110696305",0,0,0,0,"0,45",0,492
"-667,1827669046",0,"744,8940565916",0,0,0,0,"0,45",0,493
"-673,0125135098",0,"739,6310949786",0,0,0,0,"0,45",0,494
"-678,8007455329",0,"734,3225094357",0,0,0,0,"0,45",0,495
"-684,5471059287",0,"728,9686274214",0,0,0,0,"0,45",0,496
"-690,2512402344",0,"723,5697791884",0,0,0,0,"0,45",0,497
"-695,9127965923",0,"718,1262977632",0,0,0,0,"0,45",0,498
"-701,5314257709",0,"712,6385189252",0,0,0,0,"0,45",0,499
"-707,1067811865",0,"707,1067811865",0,0,0,0,"0,45",0,500
"-712,6385189252",0,"701,5314257709",0,0,0,0,"0,45",0,501
"-718,1262977632",0,"695,9127965923",0,0,0,0,"0,45",0,502
"-723,5697791885",0,"690,2512402344",0,0,0,0,"0,45",0,503
"-728,9686274214",0,"684,5471059287",0,0,0,0,"0,45",0,504
"-734,3225094357",0,"678,8007455329",0,0,0,0,"0,45",0,505
"-739,6310949786",0,"673,0125135098",0,0,0,0,"0,45",0,506
"-744,8940565916",0,"667,1827669046",0,0,0,0,"0,45",0,507
"-750,1110696305",0,"661,3118653237",0,0,0,0,"0,45",0,508
"-755,2818122852",0,"655,4001709118",0,0,0,0,"0,45",0,509
"-760,4059656",0,"649,4480483302",0,0,0,0,"0,45",0,510
"-765,4832134931",0,"643,4558647338",0,0,0,0,"0,45",0,511
"-770,5132427758",0,"637,4239897487",0,0,0,0,"0,45",0,512
"-775,4957431722",0,"631,3527954494",0,0,0,0,"0,45",0,513
"-780,4304073383",0,"625,2426563357",0,0,0,0,"0,45",0,514
"-785,3169308807",0,"619,0939493098",0,0,0,0,"0,45",0,515
"-790,1550123757",0,"612,907053653",0,0,0,0,"0,45",0,516
"-794,9443533875",0,"606,682351002",0,0,0,0,"0,45",0,517
"-799,6846584871",0,"600,4202253259",0,0,0,0,"0,45",0,518
"-804,3756352701",0,"594,121062902",0,0,0,0,"0,45",0,519
"-809,0169943749",0,"587,7852522925",0,0,0,0,"0,45",0,520
"-813,6084495008",0,"581,4131843198",0,0,0,0,"0,45",0,521
"-818,149717425",0,"575,0052520433",0,0,0,0,"0,45",0,522
"-822,6405180209",0,"568,5618507343",0,0,0,0,"0,45",0,523
"-827,0805742746",0,"562,0833778521",0,0,0,0,"0,45",0,524
"-831,4696123025",0,"555,5702330196",0,0,0,0,"0,45",0,525
"-835,8073613683",0,"549,0228179981",0,0,0,0,"0,45",0,526
"-840,0935538989",0,"542,4415366631",0,0,0,0,"0,45",0,527
"-844,327925502",0,"535,826794979",0,0,0,0,"0,45",0,528
"-848,5102149815",0,"529,1790009742",0,0,0,0,"0,45",0,529
"-852,6401643541",0,"522,4985647159",0,0,0,0,"0,45",0,530
"-856,7175188651",0,"515,785898285",0,0,0,0,"0,45",0,531
"-860,7420270039",0,"509,0414157504",0,0,0,0,"0,45",0,532
"-864,7134405202",0,"502,2655331434",0,0,0,0,"0,45",0,533
"-868,6315144382",0,"495,4586684324",0,0,0,0,"0,45",0,534
"-872,4960070728",0,"488,621241497",0,0,0,0,"0,45",0,535
"-876,3066800439",0,"481,7536741017",0,0,0,0,"0,45",0,536
"-880,0632982911",0,"474,8563898706",0,0,0,0,"0,45",0,537
"-883,7656300887",0,"467,9298142606",0,0,0,0,"0,45",0,538
"-887,4134470593",0,"460,9743745355",0,0,0,0,"0,45",0,539
"-891,0065241884",0,"453,9904997395",0,0,0,0,"0,45",0,540
"-894,544639838",0,"446,9786206711",0,0,0,0,"0,45",0,541
"-898,0275757606",0,"439,9391698559",0,0,0,0,"0,45",0,542
"-901,4551171122",0,"432,8725815204",0,0,0,0,"0,45",0,543
"-904,827052466",0,"425,7792915651",0,0,0,0,"0,45",0,544
"-908,1431738251",0,"418,6597375374",0,0,0,0,"0,45",0,545
"-911,4032766354",0,"411,5143586051",0,0,0,0,"0,45",0,546
"-914,6071597986",0,"404,3435955287",0,0,0,0,"0,45",0,547
"-917,754625684",0,"397,1478906348",0,0,0,0,"0,45",0,548
"-920,845480141",0,"389,9276877882",0,0,0,0,"0,45",0,549
"-923,8795325113",0,"382,6834323651",0,0,0,0,"0,45",0,550
"-926,8565956401",0,"375,4155712253",0,0,0,0,"0,45",0,551
"-929,7764858883",0,"368,1245526847",0,0,0,0,"0,45",0,552
"-932,6390231431",0,"360,8108264876",0,0,0,0,"0,45",0,553
"-935,4440308299",0,"353,4748437793",0,0,0,0,"0,45",0,554
"-938,1913359225",0,"346,1170570775",0,0,0,0,"0,45",0,555
"-940,8807689542",0,"338,7379202453",0,0,0,0,"0,45",0,556
"-943,5121640282",0,"331,3378884626",0,0,0,0,"0,45",0,557
"-946,0853588275",0,"323,9174181981",0,0,0,0,"0,45",0,558
"-948,6001946255",0,"316,4769671816",0,0,0,0,"0,45",0,559
"-951,0565162952",0,"309,0169943749",0,0,0,0,"0,45",0,560
"-953,454172319",0,"301,5379599445",0,0,0,0,"0,45",0,561
"-955,7930147983",0,"294,0403252323",0,0,0,0,"0,45",0,562
"-958,0728994623",0,"286,5245527278",0,0,0,0,"0,45",0,563
"-960,2936856769",0,"278,9911060392",0,0,0,0,"0,45",0,564
"-962,4552364536",0,"271,4404498651",0,0,0,0,"0,45",0,565
"-964,5574184578",0,"263,8730499654",0,0,0,0,"0,45",0,566
"-966,6001020169",0,"256,289373133",0,0,0,0,"0,45",0,567
"-968,5831611286",0,"248,6898871649",0,0,0,0,"0,45",0,568
"-970,5064734685",0,"241,075060833",0,0,0,0,"0,45",0,569
"-972,3699203977",0,"233,4453638559",0,0,0,0,"0,45",0,570
"-974,1733869699",0,"225,8012668691",0,0,0,0,"0,45",0,571
"-975,9167619387",0,"218,1432413965",0,0,0,0,"0,45",0,572
"-977,5999377648",0,"210,4717598213",0,0,0,0,"0,45",0,573
"-979,2228106218",0,"202,7872953565",0,0,0,0,"0,45",0,574
"-980,7852804032",0,"195,0903220161",0,0,0,0,"0,45",0,575
"-982,2872507287",0,"187,3813145857",0,0,0,0,"0,45",0,576
"-983,7286289495",0,"179,6607485932",0,0,0,0,"0,45",0,577
"-985,1093261548",0,"171,9291002794",0,0,0,0,"0,45",0,578
"-986,4292571765",0,"164,1868465689",0,0,0,0,"0,45",0,579
"-987,6883405951",0,"156,4344650402",0,0,0,0,"0,45",0,580
"-988,8864987445",0,"148,6724338969",0,0,0,0,"0,45",0,581
"-990,0236577166",0,"140,9012319376",0,0,0,0,"0,45",0,582
"-991,099747366",0,"133,1213385265",0,0,0,0,"0,45",0,583
"-992,1147013145",0,"125,3332335643",0,0,0,0,"0,45",0,584
"-993,0684569549",0,"117,5373974578",0,0,0,0,"0,45",0,585
"-993,9609554552",0,"109,734311091",0,0,0,0,"0,45",0,586
"-994,7921417617",0,"101,924455795",0,0,0,0,"0,45",0,587
"-995,5619646031",0,"94,1083133185",0,0,0,0,"0,45",0,588
"-996,2703764929",0,"86,2863657979",0,0,0,0,"0,45",0,589
"-996,9173337331",0,"78,4590957278",0,0,0,0,"0,45",0,590
"-997,5027964163",0,"70,6269859312",0,0,0,0,"0,45",0,591
"-998,0267284283",0,"62,7905195293",0,0,0,0,"0,45",0,592
"-998,4890974505",0,"54,9501799124",0,0,0,0,"0,45",0,593
"-998,889874962",0,"47,1064507096",0,0,0,0,"0,45",0,594
"-999,2290362407",0,"39,2598157591",0,0,0,0,"0,45",0,595
"-999,5065603657",0,"31,4107590781",0,0,0,0,"0,45",0,596
"-999,722430218",0,"23,5597648336",0,0,0,0,"0,45",0,597
"-999,8766324817",0,"15,7073173118",0,0,0,0,"0,45",0,598
"-999,9691576448",0,"7,8539008887",0,0,0,0,"0,45",0,599
-1000,0,100,0,0,0,0,0,0,600
-1000,0,100,0,0,0,0,0,0,601
-1000,0,100,0,0,0,0,0,0,602
-1000,0,100,0,0,0,0,0,0,603
-1000,0,100,0,0,0,0,0,0,604
-1000,0,100,0,0,0,0,0,0,605
-1000,0,100,0,0,0,0,0,0,606
-1000,0,100,0,0,0,0,0,0,607
-1000,0,100,0,0,0,0,0,0,608
-1000,0,100,0,0,0,0,0,0,609
-1000,0,100,0,0,0,0,0,0,610
-1000,0,100,0,0,0,0,0,0,611
-1000,0,100,0,0,0,0,0,0,612
-1000,0,100,0,0,0,0,0,0,613
-1000,0,100,0,0,0,0,0,0,614
-1000,0,100,0,0,0,0,0,0,615
-1000,0,100,0,0,0,0,0,0,616
-1000,0,100,0,0,0,0,0,0,617
-1000,0,100,0,0,0,0,0,0,618
-1000,0,100,0,0,0,0,0,0,619
-1000,0,100,0,0,0,0,0,0,620
-1000,0,100,0,0,0,0,0,0,621
-1000,0,100,0,0,0,0,0,0,622
-1000,0,100,0,0,0,0,0,0,623
-1000,0,100,0,0,0,0,0,0,624
-1000,0,100,0,0,0,0,0,0,625
-1000,0,100,0,0,0,0,0,0,626
-1000,0,100,0,0,0,0,0,0,627
-1000,0,100,0,0,0,0,0,0,628
-1000,0,100,0,0,0,0,0,0,629
-1000,0,100,0,0,0,0,0,0,630
-1000,0,100,0,0,0,0,0,0,631
-1000,0,100,0,0,0,0,0,0,632
-1000,0,100,0,0,0,0,0,0,633
-1000,0,100,0,0,0,0,0,0,634
-1000,0,100,0,0,0,0,0,0,635
-1000,0,100,0,0,0,0,0,0,636
-1000,0,100,0,0,0,0,0,0,637
-1000,0,100,0,0,0,0,0,0,638
-1000,0,100,0,0,0,0,0,0,639
-1000,0,100,0,0,0,0,0,0,640
-1000,0,100,0,0,0,0,0,0,641
-1000,0,100,0,0,0,0,0,0,642
-1000,0,100,0,0,0,0,0,0,643
-1000,0,100,0,0,0,0,0,0,644
-1000,0,100,0,0,0,0,0,0,645
-1000,0,100,0,0,0,0,0,0,646
-1000,0,100,0,0,0,0,0,0,647
-1000,0,100,0,0,0,0,0,0,648
-1000,0,100,0,0,0,0,0,0,649
-1000,0,100,0,0,0,0,0,0,650
-1000,0,100,0,0,0,0,0,0,651
-1000,0,100,0,0,0,0,0,0,652
-1000,0,100,0,0,0,0,0,0,653
-1000,0,100,0,0,0,0,0,0,654
-1000,0,100,0,0,0,0,0,0,655
-1000,0,100,0,0,0,0,0,0,656
-1000,0,100,0,0,0,0,0,0,657
-1000,0,100,0,0,0,0,0,0,658
-1000,0,100,0,0,0,0,0,0,659
-1000,0,100,0,0,0,0,0,0,660
-1000,0,100,0,0,0,0,0,0,661
-1000,0,100,0,0,0,0,0,0,662
-1000,0,100,0,0,0,0,0,0,663
-1000,0,100,0,0,0,0,0,0,664
-1000,0,100,0,0,0,0,0,0,665
-1000,0,100,0,0,0,0,0,0,666
-1000,0,100,0,0,0,0,0,0,667
-1000,0,100,0,0,0,0,0,0,668
-1000,0,100,0,0,0,0,0,0,669
-1000,0,100,0,0,0,0,0,0,670
-1000,0,100,0,0,0,0,0,0,671
-1000,0,100,0,0,0,0,0,0,672
-1000,0,100,0,0,0,0,0,0,673
-1000,0,100,0,0,0,0,0,0,674
-1000,0,100,0,0,0,0,0,0,675
-1000,0,100,0,0,0,0,0,0,676
-1000,0,100,0,0,0,0,0,0,677
-1000,0,100,0,0,0,0,0,0,678
-1000,0,100,0,0,0,0,0,0,679
-1000,0,100,0,0,0,0,0,0,680
-1000,0,100,0,0,0,0,0,0,681
-1000,0,100,0,0,0,0,0,0,682
-1000,0,100,0,0,0,0,0,0,683
-1000,0,100,0,0,0,0,0,0,684
-1000,0,100,0,0,0,0,0,0,685
-1000,0,100,0,0,0,0,0,0,686
-1000,0,100,0,0,0,0,0,0,687
-1000,0,100,0,0,0,0,0,0,688
-1000,0,100,0,0,0,0,0,0,689
-1000,0,100,0,0,0,0,0,0,690
-1000,0,100,0,0,0,0,0,0,691
-1000,0,100,0,0,0,0,0,0,692
-1000,0,100,0,0,0,0,0,0,693
-1000,0,100,0,0,0,0,0,0,694
-1000,0,100,0,0,0,0,0,0,695
-1000,0,100,0,0,0,0,0,0,696
-1000,0,100,0,0,0,0,0,0,697
-1000,0,100,0,0,0,0,0,0,698
-1000,0,100,0,0,0,0,0,0,699
-1000,0,100,0,0,0,0,0,0,700
-1000,0,100,0,0,0,0,0,0,701
-1000,0,100,0,0,0,0,0,0,702
-1000,0,100,0,0,0,0,0,0,703
-1000,0,100,0,0,0,0,0,0,704
-1000,0,100,0,0,0,0,0,0,705
-1000,0,100,0,0,0,0,0,0,706
-1000,0,100,0,0,0,0,0,0,707
-1000,0,100,0,0,0,0,0,0,708
-1000,0,100,0,0,0,0,0,0,709
-1000,0,100,0,0,0,0,0,0,710
-1000,0,100,0,0,0,0,0,0,711
-1000,0,100,0,0,0,0,0,0,712
-1000,0,100,0,0,0,0,0,0,713
-1000,0,100,0,0,0,0,0,0,714
-1000,0,100,0,0,0,0,0,0,715
-1000,0,100,0,0,0,0,0,0,716
-1000,0,100,0,0,0,0,0,0,717
-1000,0,100,0,0,0,0,0,0,718
-1000,0,100,0,0,0,0,0,0,719
-1000,0,100,0,0,0,0,0,0,720
-1000,0,100,0,0,0,0,0,0,721
-1000,0,100,0,0,0,0,0,0,722
-1000,0,100,0,0,0,0,0,0,723
-1000,0,100,0,0,0,0,0,0,724
-1000,0,100,0,0,0,0,0,0,725
-1000,0,100,0,0,0,0,0,0,726
-1000,0,100,0,0,0,0,0,0,727
-1000,0,100,0,0,0,0,0,0,728
-1000,0,100,0,0,0,0,0,0,729
-1000,0,100,0,0,0,0,0,0,730
-1000,0,100,0,0,0,0,0,0,731
-1000,0,100,0,0,0,0,0,0,732
-1000,0,100,0,0,0,0,0,0,733
-1000,0,100,0,0,0,0,0,0,734
-1000,0,100,0,0,0,0,0,0,735
-1000,0,100,0,0,0,0,0,0,736
-1000,0,100,0,0,0,0,0,0,737
-1000,0,100,0,0,0,0,0,0,738
-1000,0,100,0,0,0,0,0,0,739
-1000,0,100,0,0,0,0,0,0,740
-1000,0,100,0,0,0,0,0,0,741
-1000,0,100,0,0,0,0,0,0,742
-1000,0,100,0,0,0,0,0,0,743
-1000,0,100,0,0,0,0,0,0,744
-1000,0,100,0,0,0,0,0,0,745
-1000,0,100,0,0,0,0,0,0,746
-1000,0,100,0,0,0,0,0,0,747
-1000,0,100,0,0,0,0,0,0,748
-1000,0,100,0,0,0,0,0,0,749
-1000,0,100,0,0,0,0,0,0,750
-1000,0,100,0,0,0,0,0,0,751
-1000,0,100,0,0,0,0,0,0,752
-1000,0,100,0,0,0,0,0,0,753
-1000,0,100,0,0,0,0,0,0,754
-1000,0,100,0,0,0,0,0,0,755
-1000,0,100,0,0,0,0,0,0,756
-1000,0,100,0,0,0,0,0,0,757
-1000,0,100,0,0,0,0,0,0,758
-1000,0,100,0,0,0,0,0,0,759
-1000,0,100,0,0,0,0,0,0,760
-1000,0,100,0,0,0,0,0,0,761
-1000,0,100,0,0,0,0,0,0,762
-1000,0,100,0,0,0,0,0,0,763
-1000,0,100,0,0,0,0,0,0,764
-1000,0,100,0,0,0,0,0,0,765
-1000,0,100,0,0,0,0,0,0,766
-1000,0,100,0,0,0,0,0,0,767
-1000,0,100,0,0,0,0,0,0,768
-1000,0,100,0,0,0,0,0,0,769
-1000,0,100,0,0,0,0,0,0,770
-1000,0,100,0,0,0,0,0,0,771
-1000,0,100,0,0,0,0,0,0,772
-1000,0,100,0,0,0,0,0,0,773
-1000,0,100,0,0,0,0,0,0,774
-1000,0,100,0,0,0,0,0,0,775
-1000,0,100,0,0,0,0,0,0,776
-1000,0,100,0,0,0,0,0,0,777
-1000,0,100,0,0,0,0,0,0,778
-1000,0,100,0,0,0,0,0,0,779
-1000,0,100,0,0,0,0,0,0,780
-1000,0,100,0,0,0,0,0,0,781
-1000,0,100,0,0,0,0,0,0,782
-1000,0,100,0,0,0,0,0,0,783
-1000,0,100,0,0,0,0,0,0,784
-1000,0,100,0,0,0,0,0,0,785
-1000,0,100,0,0,0,0,0,0,786
-1000,0,100,0,0,0,0,0,0,787
-1000,0,100,0,0,0,0,0,0,788
-1000,0,100,0,0,0,0,0,0,789
-1000,0,100,0,0,0,0,0,0,790
-1000,0,100,0,0,0,0,0,0,791
-1000,0,100,0,0,0,0,0,0,792
-1000,0,100,0,0,0,0,0,0,793
-1000,0,100,0,0,0,0,0,0,794
-1000,0,100,0,0,0,0,0,0,795
-1000,0,100,0,0,0,0,0,0,796
-1000,0,100,0,0,0,0,0,0,797
-1000,0,100,0,0,0,0,0,0,798
-1000,0,100,0,0,0,0,0,0,799
