ACC_X,ACC_Y,ACC_Z,MAG_X,MAG_Y,MAG_Z, GYRO_X,GYRO_Y,GYRO_Z,COUNT
0.000000,35.971222,1055.155884,-137.777771,55.555557,-442.500000,-7.070354,-0.840042,-0.910046,0
-71.942444,0.000000,1055.155884,-137.777771,73.333336,-435.000000,-6.300315,-1.120056,-0.840042,1
-23.980814,23.980814,1031.175049,-137.777771,60.000000,-435.000000,-5.810291,-0.350018,-1.610080,2
-11.990407,59.952034,1067.146240,-137.777771,68.888885,-435.000000,-7.000350,-0.350018,-1.120056,3
23.980814,11.990407,1055.155884,-140.000000,60.000000,-440.000000,-7.630382,0.140007,-0.910046,4
-23.980814,0.000000,1007.194214,-137.777771,73.333336,-432.500000,-8.540427,1.260063,-0.980049,5
-11.990407,0.000000,1031.175049,-137.777771,64.444443,-437.500000,-8.960448,1.750087,-0.210010,6
0.000000,0.000000,1055.155884,-137.777771,75.555557,-435.000000,-9.590480,1.890095,-0.560028,7
-11.990407,23.980814,1043.165405,-140.000000,62.222221,-437.500000,-9.730487,2.100105,-0.490025,8
0.000000,0.000000,1055.155884,-137.777771,68.888885,-440.000000,-9.660483,1.820091,-0.630032,9
-11.990407,0.000000,1055.155884,-142.222229,60.000000,-435.000000,-8.680434,1.750087,-0.420021,10
0.000000,23.980814,1055.155884,-140.000000,75.555557,-440.000000,-9.030452,1.050053,-0.980049,11
0.000000,-11.990407,1043.165405,-137.777771,57.777779,-437.500000,-7.770389,1.540077,0.140007,12
23.980814,-23.980814,1055.155884,-137.777771,68.888885,-442.500000,-6.230311,1.120056,0.000000,13
11.990407,11.990407,1055.155884,-135.555557,64.444443,-435.000000,-5.600280,0.280014,-0.490025,14
0.000000,-23.980814,1055.155884,-137.777771,71.111115,-432.500000,-5.740287,-0.210010,-0.070004,15
0.000000,11.990407,1043.165405,-140.000000,62.222221,-437.500000,-5.460273,-1.260063,-0.700035,16
0.000000,23.980814,1031.175049,-137.777771,71.111115,-437.500000,-5.530277,-0.560028,-0.350018,17
0.000000,23.980814,1067.146240,-137.777771,60.000000,-440.000000,-5.250263,-0.280014,-0.560028,18
-23.980814,0.000000,1031.175049,-137.777771,73.333336,-435.000000,-5.950297,-0.140007,-0.770038,19
-11.990407,23.980814,1031.175049,-135.555557,60.000000,-435.000000,-6.860343,-0.490025,-1.050053,20
-23.980814,47.961628,1031.175049,-137.777771,66.666664,-437.500000,-6.580329,-0.280014,-0.280014,21
-23.980814,11.990407,1055.155884,-142.222229,62.222221,-440.000000,-6.720336,-0.140007,-0.140007,22
-23.980814,23.980814,1055.155884,-135.555557,73.333336,-437.500000,-6.370318,-0.700035,-0.420021,23
0.000000,11.990407,1043.165405,-137.777771,60.000000,-437.500000,-7.000350,-0.840042,-0.350018,24
-23.980814,0.000000,1055.155884,-133.333328,71.111115,-435.000000,-6.930346,-0.280014,-0.770038,25
-23.980814,0.000000,1055.155884,-137.777771,62.222221,-437.500000,-6.580329,-0.210010,0.140007,26
-23.980814,0.000000,1031.175049,-137.777771,71.111115,-435.000000,-7.000350,0.140007,-0.630032,27
-23.980814,47.961628,1043.165405,-140.000000,68.888885,-437.500000,-7.700385,-0.420021,-0.420021,28
23.980814,0.000000,1055.155884,-140.000000,71.111115,-432.500000,-7.840392,-0.210010,-0.980049,29
-23.980814,0.000000,1055.155884,-140.000000,60.000000,-437.500000,-7.560378,0.140007,-1.050053,30
-23.980814,-23.980814,1055.155884,-135.555557,77.777779,-440.000000,-9.030452,0.560028,-0.700035,31
-11.990407,0.000000,1079.136597,-135.555557,60.000000,-435.000000,-8.820441,0.420021,-0.840042,32
-47.961628,23.980814,1007.194214,-137.777771,77.777779,-440.000000,-9.450473,-0.070004,-0.840042,33
11.990407,35.971222,1031.175049,-140.000000,60.000000,-437.500000,-9.030452,0.000000,-0.980049,34
0.000000,-23.980814,1031.175049,-140.000000,75.555557,-435.000000,-8.750438,-0.070004,-0.910046,35
-35.971222,23.980814,1043.165405,-137.777771,66.666664,-437.500000,-8.120406,0.490025,-0.210010,36
-35.971222,47.961628,1055.155884,-135.555557,73.333336,-432.500000,-7.560378,0.280014,-0.980049,37
-35.971222,-23.980814,1043.165405,-140.000000,62.222221,-437.500000,-7.140357,0.350018,-0.700035,38
47.961628,0.000000,1055.155884,-135.555557,66.666664,-435.000000,-7.000350,0.280014,0.140007,39
0.000000,11.990407,1055.155884,-137.777771,62.222221,-440.000000,-7.070354,-0.350018,-0.630032,40
-71.942444,23.980814,1055.155884,-135.555557,68.888885,-432.500000,-6.440322,-0.490025,-0.770038,41
-23.980814,11.990407,1031.175049,-140.000000,60.000000,-440.000000,-5.950297,0.070004,-0.560028,42
0.000000,0.000000,1031.175049,-140.000000,64.444443,-440.000000,-5.670284,0.210010,0.000000,43
0.000000,11.990407,1043.165405,-137.777771,62.222221,-437.500000,-6.440322,-0.350018,-0.630032,44
0.000000,0.000000,1031.175049,-135.555557,73.333336,-440.000000,-7.420371,0.070004,-1.050053,45
-11.990407,11.990407,1067.146240,-140.000000,57.777779,-442.500000,-7.420371,0.280014,-1.260063,46
0.000000,0.000000,1055.155884,-137.777771,73.333336,-435.000000,-6.790339,0.560028,-0.700035,47
-11.990407,11.990407,1043.165405,-140.000000,62.222221,-437.500000,-7.140357,0.420021,-0.840042,48
-23.980814,0.000000,1055.155884,-135.555557,75.555557,-432.500000,-6.790339,0.280014,-0.770038,49
-23.980814,0.000000,1055.155884,-137.777771,60.000000,-440.000000,-5.950297,0.140007,-0.840042,50
23.980814,23.980814,1007.194214,-140.000000,68.888885,-435.000000,-6.580329,-0.210010,0.280014,51
11.990407,23.980814,1019.184631,-137.777771,62.222221,-440.000000,-6.370318,-0.280014,-0.700035,52
0.000000,23.980814,1055.155884,-137.777771,73.333336,-435.000000,-6.440322,-0.560028,-0.910046,53
0.000000,11.990407,1067.146240,-137.777771,55.555557,-440.000000,-6.930346,-0.630032,-0.350018,54
-23.980814,0.000000,1007.194214,-137.777771,75.555557,-440.000000,-5.670284,-0.840042,-0.490025,55
-11.990407,0.000000,1055.155884,-137.777771,60.000000,-440.000000,-6.020301,-0.840042,-0.490025,56
-47.961628,0.000000,1055.155884,-133.333328,73.333336,-435.000000,-5.670284,-0.630032,-0.350018,57
-47.961628,11.990407,1043.165405,-137.777771,62.222221,-435.000000,-6.090304,-0.630032,-1.260063,58
-71.942444,23.980814,1031.175049,-140.000000,68.888885,-437.500000,-5.950297,-0.770038,-1.120056,59
0.000000,0.000000,1043.165405,-140.000000,60.000000,-437.500000,-5.880294,-0.700035,-0.210010,60
0.000000,23.980814,1055.155884,-133.333328,75.555557,-435.000000,-6.720336,-0.210010,-0.420021,61
-23.980814,11.990407,1055.155884,-140.000000,60.000000,-440.000000,-7.770389,0.700035,-0.630032,62
-47.961628,0.000000,1031.175049,-135.555557,73.333336,-440.000000,-7.770389,0.070004,-0.560028,63
-23.980814,0.000000,1031.175049,-140.000000,53.333332,-440.000000,-7.840392,0.630032,-0.840042,64
-23.980814,0.000000,1079.136597,-137.777771,71.111115,-437.500000,-8.960448,0.840042,-0.490025,65
-23.980814,11.990407,1067.146240,-133.333328,64.444443,-437.500000,-9.520476,1.190060,-0.630032,66
-23.980814,0.000000,1055.155884,-135.555557,73.333336,-437.500000,-8.960448,0.280014,0.210010,67
-35.971222,0.000000,1055.155884,-140.000000,62.222221,-440.000000,-9.520476,-0.280014,-0.140007,68
-23.980814,47.961628,1055.155884,-137.777771,68.888885,-437.500000,-9.730487,0.350018,-0.560028,69
-23.980814,11.990407,1043.165405,-142.222229,64.444443,-435.000000,-9.870494,0.070004,-0.210010,70
23.980814,0.000000,1055.155884,-133.333328,75.555557,-440.000000,-8.960448,0.560028,-0.770038,71
-23.980814,0.000000,1031.175049,-140.000000,60.000000,-445.000000,-8.680434,0.140007,-1.190060,72
-35.971222,0.000000,1043.165405,-142.222229,66.666664,-440.000000,-7.910396,-0.630032,-0.210010,73
-11.990407,23.980814,1043.165405,-133.333328,62.222221,-437.500000,-7.910396,-0.630032,-0.700035,74
-23.980814,23.980814,1055.155884,-133.333328,73.333336,-435.000000,-5.320266,-0.980049,-0.840042,75
11.990407,35.971222,1019.184631,-140.000000,62.222221,-437.500000,-4.830242,-1.190060,-0.420021,76
-23.980814,71.942444,1031.175049,-133.333328,73.333336,-435.000000,-4.550228,-2.310116,0.280014,77
-23.980814,11.990407,1019.184631,-137.777771,57.777779,-442.500000,-3.430171,-2.380119,0.210010,78
-47.961628,0.000000,1055.155884,-135.555557,73.333336,-435.000000,-2.800140,-2.940147,-0.210010,79
-35.971222,0.000000,1055.155884,-137.777771,57.777779,-440.000000,-2.240112,-2.800140,-0.140007,80
-71.942444,47.961628,1055.155884,-135.555557,66.666664,-435.000000,-2.310116,-2.450123,0.700035,81
-23.980814,35.971222,1055.155884,-137.777771,62.222221,-437.500000,-2.660133,-2.590130,0.490025,82
-23.980814,0.000000,1031.175049,-135.555557,73.333336,-437.500000,-3.780189,-2.380119,0.210010,83
-35.971222,23.980814,1031.175049,-142.222229,57.777779,-437.500000,-3.780189,-1.540077,0.350018,84
-47.961628,23.980814,1055.155884,-135.555557,71.111115,-435.000000,-5.740287,-0.910046,-0.140007,85
-11.990407,23.980814,1043.165405,-137.777771,62.222221,-442.500000,-6.790339,0.770038,-0.840042,86
0.000000,23.980814,1031.175049,-131.111115,73.333336,-437.500000,-7.070354,0.420021,-0.140007,87
-23.980814,23.980814,1031.175049,-137.777771,66.666664,-437.500000,-7.350368,0.840042,-0.490025,88
-23.980814,71.942444,1031.175049,-137.777771,73.333336,-440.000000,-8.750438,1.610080,-0.070004,89
-35.971222,23.980814,1043.165405,-140.000000,60.000000,-440.000000,-8.260413,1.750087,-0.070004,90
0.000000,0.000000,1055.155884,-133.333328,71.111115,-437.500000,-8.260413,1.750087,-0.420021,91
11.990407,23.980814,1055.155884,-135.555557,62.222221,-442.500000,-8.190410,1.400070,-0.490025,92
-47.961628,0.000000,983.213379,-133.333328,68.888885,-435.000000,-8.050403,1.260063,-0.560028,93
-23.980814,0.000000,1043.165405,-140.000000,60.000000,-440.000000,-8.330417,0.980049,-0.630032,94
-71.942444,23.980814,1055.155884,-140.000000,71.111115,-437.500000,-7.630382,0.630032,-0.770038,95
-23.980814,23.980814,1055.155884,-137.777771,64.444443,-437.500000,-7.280364,0.350018,-0.840042,96
-47.961628,47.961628,1055.155884,-135.555557,75.555557,-437.500000,-6.580329,0.350018,-0.560028,97
-47.961628,23.980814,1043.165405,-137.777771,57.777779,-442.500000,-6.650332,-0.140007,-0.980049,98
-23.980814,23.980814,1055.155884,-133.333328,73.333336,-437.500000,-5.810291,-0.700035,-0.420021,99
-11.990407,23.980814,1067.146240,-140.000000,62.222221,-442.500000,-3.780189,-0.980049,-0.140007,100
23.980814,-23.980814,1007.194214,-133.333328,73.333336,-435.000000,-4.200210,-1.260063,-0.070004,101
0.000000,-11.990407,1043.165405,-137.777771,64.444443,-440.000000,-4.130207,-1.330067,-0.490025,102
0.000000,47.961628,1031.175049,-135.555557,64.444443,-440.000000,-3.780189,-1.260063,-0.840042,103
0.000000,11.990407,1031.175049,-135.555557,60.000000,-437.500000,-4.130207,-1.610080,-0.280014,104
0.000000,23.980814,1055.155884,-131.111115,73.333336,-440.000000,-4.620231,-0.980049,0.070004,105
-23.980814,23.980814,1079.136597,-137.777771,62.222221,-440.000000,-4.550228,-1.190060,0.560028,106
-47.961628,11.990407,1067.146240,-133.333328,73.333336,-435.000000,-4.900245,-0.980049,-0.630032,107
-47.961628,23.980814,1067.146240,-137.777771,60.000000,-440.000000,-5.320266,-0.490025,-0.140007,108
-47.961628,0.000000,983.213379,-131.111115,71.111115,-435.000000,-4.410221,-1.050053,-1.050053,109
-35.971222,0.000000,1043.165405,-137.777771,60.000000,-442.500000,-4.970249,-0.910046,-0.350018,110
-47.961628,-23.980814,1055.155884,-137.777771,66.666664,-435.000000,-5.180259,-0.560028,-0.910046,111
-47.961628,47.961628,1031.175049,-135.555557,60.000000,-442.500000,-5.600280,-0.630032,-0.140007,112
-23.980814,0.000000,1031.175049,-135.555557,75.555557,-437.500000,-7.000350,-0.350018,-0.700035,113
0.000000,11.990407,1055.155884,-137.777771,53.333332,-442.500000,-8.050403,0.070004,-0.700035,114
0.000000,23.980814,1055.155884,-133.333328,73.333336,-437.500000,-7.700385,0.280014,-0.700035,115
-23.980814,11.990407,1043.165405,-137.777771,62.222221,-442.500000,-6.720336,-0.350018,-0.350018,116
-23.980814,0.000000,1055.155884,-135.555557,66.666664,-440.000000,-5.320266,-0.910046,-0.770038,117
23.980814,0.000000,1055.155884,-137.777771,64.444443,-442.500000,-4.690235,-1.120056,-0.420021,118
-47.961628,0.000000,1031.175049,-140.000000,75.555557,-442.500000,-3.570179,-1.890095,-0.140007,119
-11.990407,11.990407,1043.165405,-137.777771,60.000000,-442.500000,-2.730137,-2.100105,0.280014,120
-23.980814,0.000000,1055.155884,-133.333328,71.111115,-440.000000,-2.520126,-2.030102,0.140007,121
-23.980814,0.000000,1019.184631,-140.000000,60.000000,-445.000000,-3.290164,-1.750087,0.490025,122
-71.942444,0.000000,1055.155884,-133.333328,71.111115,-440.000000,-3.220161,-1.820091,0.420021,123
-35.971222,23.980814,1055.155884,-137.777771,60.000000,-440.000000,-4.060203,-1.470073,-0.140007,124
-23.980814,0.000000,1055.155884,-133.333328,68.888885,-437.500000,-4.340217,-1.540077,-0.350018,125
-59.952034,0.000000,1055.155884,-133.333328,66.666664,-440.000000,-5.390270,-1.120056,-0.420021,126
-71.942444,23.980814,1031.175049,-131.111115,71.111115,-440.000000,-5.880294,-0.560028,-0.420021,127
-35.971222,0.000000,1067.146240,-140.000000,64.444443,-442.500000,-6.090304,-0.070004,-0.700035,128
23.980814,0.000000,1079.136597,-128.888885,71.111115,-437.500000,-5.880294,0.000000,-1.190060,129
-11.990407,0.000000,1031.175049,-133.333328,62.222221,-442.500000,-6.440322,-0.350018,-0.770038,130
-23.980814,0.000000,1031.175049,-131.111115,73.333336,-437.500000,-7.000350,-0.280014,-0.560028,131
-11.990407,-11.990407,1043.165405,-137.777771,60.000000,-442.500000,-7.070354,-0.420021,-0.700035,132
0.000000,23.980814,1055.155884,-133.333328,66.666664,-440.000000,-7.560378,-0.140007,-0.840042,133
-23.980814,11.990407,1055.155884,-131.111115,60.000000,-440.000000,-7.070354,-0.630032,-0.140007,134
-23.980814,23.980814,1031.175049,-133.333328,73.333336,-442.500000,-7.420371,-0.770038,-0.560028,135
-23.980814,11.990407,1031.175049,-135.555557,60.000000,-442.500000,-7.420371,-0.700035,-1.050053,136
-23.980814,23.980814,1055.155884,-131.111115,68.888885,-440.000000,-7.700385,-0.700035,-0.070004,137
-11.990407,47.961628,1055.155884,-135.555557,57.777779,-445.000000,-8.960448,-0.420021,-1.190060,138
-23.980814,-23.980814,1031.175049,-128.888885,75.555557,-437.500000,-9.730487,0.000000,-1.260063,139
-23.980814,23.980814,1079.136597,-133.333328,62.222221,-442.500000,-9.730487,-0.140007,-0.700035,140
-23.980814,11.990407,1055.155884,-133.333328,64.444443,-442.500000,-9.450473,0.140007,-0.770038,141
0.000000,11.990407,1043.165405,-133.333328,60.000000,-442.500000,-9.240462,0.070004,-0.490025,142
-47.961628,-23.980814,1055.155884,-133.333328,73.333336,-440.000000,-9.170459,0.210010,-0.700035,143
-23.980814,23.980814,1043.165405,-137.777771,60.000000,-445.000000,-8.820441,1.470073,-0.070004,144
-95.923256,23.980814,1031.175049,-131.111115,66.666664,-435.000000,-8.610431,1.050053,-0.490025,145
-47.961628,11.990407,1043.165405,-131.111115,60.000000,-442.500000,-8.470424,0.770038,-0.700035,146
23.980814,23.980814,1031.175049,-131.111115,73.333336,-435.000000,-7.910396,0.770038,-0.280014,147
0.000000,23.980814,1031.175049,-133.333328,62.222221,-440.000000,-6.930346,0.910046,-0.490025,148
0.000000,0.000000,1055.155884,-133.333328,75.555557,-437.500000,-6.090304,0.770038,-0.700035,149
-11.990407,11.990407,1055.155884,-135.555557,60.000000,-440.000000,-4.620231,0.140007,-0.840042,150
23.980814,23.980814,1055.155884,-131.111115,68.888885,-442.500000,-3.430171,0.140007,-0.350018,151
-11.990407,23.980814,1043.165405,-137.777771,55.555557,-442.500000,-2.100105,0.000000,-0.560028,152
-71.942444,47.961628,1031.175049,-128.888885,73.333336,-442.500000,-0.770038,-1.120056,-0.560028,153
-11.990407,23.980814,1055.155884,-135.555557,60.000000,-440.000000,-0.350018,-1.120056,-0.140007,154
-71.942444,-23.980814,1055.155884,-133.333328,66.666664,-437.500000,-1.470073,-0.910046,-0.140007,155
-47.961628,0.000000,1043.165405,-135.555557,64.444443,-437.500000,-1.540077,-1.190060,-0.350018,156
-23.980814,0.000000,1055.155884,-135.555557,73.333336,-440.000000,-2.100105,-0.980049,-0.560028,157
-35.971222,23.980814,1055.155884,-140.000000,60.000000,-440.000000,-3.080154,-1.120056,-0.630032,158
0.000000,23.980814,1031.175049,-133.333328,71.111115,-440.000000,-3.990200,-0.350018,-1.260063,159
-35.971222,11.990407,1055.155884,-133.333328,62.222221,-445.000000,-5.040252,0.280014,-0.980049,160
-47.961628,47.961628,1031.175049,-133.333328,62.222221,-445.000000,-7.140357,0.280014,-1.120056,161
-11.990407,11.990407,1079.136597,-135.555557,57.777779,-442.500000,-8.750438,0.910046,-1.890095,162
-47.961628,0.000000,1055.155884,-131.111115,68.888885,-442.500000,-9.450473,1.610080,-0.770038,163
-35.971222,23.980814,1043.165405,-137.777771,57.777779,-445.000000,-10.150508,1.890095,-0.630032,164
-23.980814,23.980814,1103.117432,-131.111115,73.333336,-440.000000,-10.360518,2.310116,-0.280014,165
-23.980814,23.980814,1067.146240,-133.333328,62.222221,-442.500000,-9.940497,1.890095,-0.420021,166
-47.961628,23.980814,1055.155884,-133.333328,68.888885,-440.000000,-9.660483,1.470073,0.280014,167
-23.980814,11.990407,1055.155884,-133.333328,62.222221,-445.000000,-8.680434,1.470073,-0.490025,168
-23.980814,23.980814,1031.175049,-131.111115,73.333336,-440.000000,-8.260413,1.190060,-0.210010,169
-23.980814,47.961628,1043.165405,-135.555557,62.222221,-445.000000,-7.630382,-0.070004,-0.350018,170
-23.980814,23.980814,1127.098267,-131.111115,64.444443,-442.500000,-6.510325,-0.630032,-0.420021,171
-47.961628,47.961628,1079.136597,-135.555557,62.222221,-442.500000,-5.250263,-0.840042,-0.070004,172
-23.980814,23.980814,1055.155884,-131.111115,68.888885,-440.000000,-3.780189,-0.840042,0.280014,173
-23.980814,-71.942444,1007.194214,-133.333328,55.555557,-445.000000,-3.640182,-1.470073,-0.560028,174
-35.971222,11.990407,1055.155884,-131.111115,68.888885,-437.500000,-3.710186,-1.610080,0.000000,175
-11.990407,0.000000,1031.175049,-131.111115,57.777779,-442.500000,-4.620231,-1.050053,0.140007,176
-47.961628,47.961628,1007.194214,-133.333328,73.333336,-437.500000,-5.950297,-0.280014,-0.770038,177
-35.971222,0.000000,1055.155884,-131.111115,66.666664,-442.500000,-6.300315,-0.630032,-0.840042,178
-71.942444,23.980814,1031.175049,-126.666664,71.111115,-437.500000,-6.930346,0.280014,-0.630032,179
-35.971222,11.990407,1055.155884,-133.333328,55.555557,-442.500000,-8.960448,0.420021,-0.630032,180
-23.980814,0.000000,1055.155884,-131.111115,71.111115,-442.500000,-9.100455,0.840042,-0.280014,181
-11.990407,11.990407,1055.155884,-133.333328,55.555557,-440.000000,-8.120406,0.490025,-0.770038,182
23.980814,0.000000,1007.194214,-131.111115,68.888885,-435.000000,-7.770389,-0.140007,-0.840042,183
-11.990407,11.990407,1031.175049,-133.333328,55.555557,-445.000000,-7.560378,-0.350018,-0.210010,184
-23.980814,23.980814,1031.175049,-131.111115,66.666664,-437.500000,-7.000350,-0.560028,0.000000,185
0.000000,0.000000,1055.155884,-133.333328,64.444443,-442.500000,-6.580329,-1.050053,-0.070004,186
0.000000,47.961628,1031.175049,-128.888885,75.555557,-442.500000,-5.810291,-0.560028,0.140007,187
11.990407,47.961628,1043.165405,-133.333328,60.000000,-445.000000,-6.440322,-1.330067,0.140007,188
0.000000,0.000000,1055.155884,-131.111115,73.333336,-442.500000,-6.160308,-1.120056,0.280014,189
-23.980814,0.000000,1055.155884,-133.333328,60.000000,-440.000000,-5.320266,-0.910046,0.280014,190
-47.961628,23.980814,1031.175049,-131.111115,68.888885,-440.000000,-4.270214,-1.050053,0.280014,191
-35.971222,11.990407,1031.175049,-133.333328,55.555557,-442.500000,-5.250263,-0.560028,0.070004,192
23.980814,23.980814,1007.194214,-131.111115,66.666664,-442.500000,-6.230311,-0.070004,-0.980049,193
-11.990407,11.990407,1031.175049,-133.333328,57.777779,-442.500000,-7.420371,-0.280014,-0.490025,194
-71.942444,0.000000,1031.175049,-131.111115,73.333336,-440.000000,-7.770389,0.000000,-0.770038,195
-71.942444,0.000000,1043.165405,-135.555557,60.000000,-442.500000,-8.820441,0.910046,-0.700035,196
-95.923256,23.980814,1031.175049,-131.111115,68.888885,-442.500000,-9.380469,0.910046,-0.980049,197
-71.942444,23.980814,1043.165405,-128.888885,55.555557,-442.500000,-9.660483,0.980049,-1.260063,198
-71.942444,0.000000,1055.155884,-133.333328,71.111115,-440.000000,-9.730487,1.120056,-0.840042,199
-35.971222,0.000000,1043.165405,-131.111115,62.222221,-440.000000,-9.730487,1.190060,0.350018,200
-47.961628,23.980814,1031.175049,-131.111115,64.444443,-442.500000,-9.800490,1.540077,0.280014,201
-23.980814,0.000000,1043.165405,-135.555557,60.000000,-442.500000,-9.870494,1.330067,-0.420021,202
-71.942444,0.000000,1055.155884,-128.888885,68.888885,-440.000000,-10.080504,1.120056,-0.350018,203
-47.961628,0.000000,1043.165405,-135.555557,55.555557,-442.500000,-9.730487,1.540077,-0.210010,204
-71.942444,71.942444,983.213379,-131.111115,71.111115,-437.500000,-10.150508,1.680084,0.070004,205
-35.971222,35.971222,1043.165405,-131.111115,55.555557,-445.000000,-9.520476,1.470073,0.350018,206
-47.961628,23.980814,1055.155884,-131.111115,71.111115,-442.500000,-9.450473,1.470073,-0.210010,207
-11.990407,23.980814,1055.155884,-131.111115,68.888885,-445.000000,-8.400420,-0.070004,-0.280014,208
-35.971222,71.942444,1055.155884,-131.111115,75.555557,-445.000000,-8.400420,-1.050053,-0.840042,209
-11.990407,11.990407,1043.165405,-133.333328,55.555557,-442.500000,-7.490375,-0.630032,-0.350018,210
-23.980814,23.980814,1031.175049,-131.111115,66.666664,-437.500000,-5.600280,-0.630032,-0.420021,211
-35.971222,-11.990407,1043.165405,-135.555557,60.000000,-445.000000,-6.860343,-0.210010,-0.980049,212
-23.980814,23.980814,1079.136597,-126.666664,73.333336,-442.500000,-6.720336,-0.280014,-0.140007,213
-11.990407,11.990407,1055.155884,-131.111115,60.000000,-440.000000,-6.230311,-0.700035,-0.350018,214
-23.980814,0.000000,1079.136597,-128.888885,66.666664,-437.500000,-5.810291,-0.910046,-0.420021,215
-35.971222,23.980814,1067.146240,-131.111115,64.444443,-442.500000,-5.110256,-0.700035,0.140007,216
0.000000,23.980814,1055.155884,-128.888885,71.111115,-437.500000,-7.840392,0.700035,-0.210010,217
-11.990407,47.961628,1043.165405,-133.333328,57.777779,-442.500000,-6.930346,0.490025,0.000000,218
-23.980814,23.980814,1031.175049,-128.888885,71.111115,-437.500000,-8.610431,1.960098,1.050053,219
-35.971222,0.000000,1055.155884,-133.333328,57.777779,-440.000000,-10.080504,2.100105,1.400070,220
-47.961628,47.961628,1007.194214,-128.888885,64.444443,-440.000000,-11.060554,2.730137,1.400070,221
-47.961628,11.990407,1019.184631,-133.333328,60.000000,-442.500000,-12.040602,2.660133,0.700035,222
-47.961628,0.000000,1031.175049,-135.555557,66.666664,-440.000000,-12.390619,2.310116,0.560028,223
-23.980814,23.980814,1067.146240,-135.555557,62.222221,-442.500000,-12.880644,1.960098,1.120056,224
0.000000,-23.980814,1031.175049,-128.888885,71.111115,-440.000000,-13.090654,0.560028,-0.070004,225
11.990407,59.952034,1055.155884,-133.333328,62.222221,-440.000000,-11.340568,0.700035,1.120056,226
-47.961628,0.000000,1055.155884,-131.111115,71.111115,-440.000000,-10.080504,1.470073,2.100105,227
-59.952034,23.980814,1043.165405,-133.333328,60.000000,-442.500000,-9.590480,0.350018,3.430171,228
-23.980814,0.000000,1055.155884,-131.111115,73.333336,-440.000000,-9.800490,-0.280014,4.550228,229
0.000000,-11.990407,1043.165405,-131.111115,68.888885,-442.500000,-8.190410,-1.470073,5.460273,230
0.000000,0.000000,1031.175049,-135.555557,64.444443,-445.000000,-4.690235,-2.380119,7.070354,231
-35.971222,11.990407,1043.165405,-131.111115,60.000000,-442.500000,-3.290164,-4.620231,7.840392,232
-47.961628,-23.980814,983.213379,-131.111115,73.333336,-437.500000,-3.150157,-4.340217,8.190410,233
-23.980814,23.980814,1031.175049,-133.333328,57.777779,-445.000000,-5.320266,-4.690235,4.200210,234
0.000000,0.000000,1055.155884,-128.888885,71.111115,-442.500000,-3.360168,-4.620231,2.590130,235
-35.971222,0.000000,1055.155884,-131.111115,62.222221,-442.500000,-3.850193,-4.130207,0.350018,236
-71.942444,47.961628,1055.155884,-128.888885,73.333336,-442.500000,-6.020301,-3.290164,-0.420021,237
-59.952034,23.980814,1055.155884,-131.111115,64.444443,-442.500000,-7.840392,-2.870144,-0.910046,238
-71.942444,0.000000,1031.175049,-131.111115,75.555557,-440.000000,-9.240462,-3.220161,-1.540077,239
-35.971222,35.971222,1055.155884,-135.555557,55.555557,-445.000000,-9.030452,-4.550228,-1.680084,240
-47.961628,71.942444,1055.155884,-128.888885,68.888885,-435.000000,-10.290515,-4.200210,-2.240112,241
-47.961628,71.942444,1079.136597,-133.333328,60.000000,-445.000000,-14.070704,1.050053,-3.150157,242
-35.971222,23.980814,1043.165405,-135.555557,68.888885,-437.500000,-10.570529,-0.840042,-2.100105,243
-23.980814,0.000000,1031.175049,-135.555557,55.555557,-442.500000,-11.060554,0.840042,-3.290164,244
0.000000,47.961628,1079.136597,-131.111115,62.222221,-445.000000,-11.060554,1.680084,-1.820091,245
-47.961628,23.980814,1031.175049,-133.333328,64.444443,-442.500000,-9.380469,1.820091,-1.120056,246
0.000000,23.980814,1007.194214,-131.111115,73.333336,-440.000000,-9.100455,1.680084,-0.630032,247
-23.980814,35.971222,1019.184631,-133.333328,57.777779,-440.000000,-6.440322,0.770038,-0.770038,248
-311.750580,-119.904068,815.347656,-128.888885,71.111115,-440.000000,-1.750087,0.560028,0.840042,249
-119.904068,-11.990407,983.213379,-131.111115,60.000000,-442.500000,5.670284,-0.490025,2.380119,250
-23.980814,23.980814,1079.136597,-133.333328,68.888885,-440.000000,-0.140007,-0.280014,0.630032,251
-35.971222,47.961628,1055.155884,-133.333328,55.555557,-442.500000,2.450123,-1.540077,1.610080,252
-47.961628,23.980814,1055.155884,-128.888885,66.666664,-437.500000,-1.190060,-1.890095,0.490025,253
-35.971222,0.000000,1079.136597,-131.111115,62.222221,-440.000000,-1.400070,-3.220161,1.050053,254
-23.980814,23.980814,1055.155884,-128.888885,66.666664,-440.000000,-3.430171,-4.130207,0.280014,255
-71.942444,0.000000,1091.127075,-133.333328,60.000000,-442.500000,0.140007,-4.270214,2.520126,256
-95.923256,23.980814,1031.175049,-131.111115,73.333336,-442.500000,-0.350018,-5.040252,1.610080,257
-35.971222,11.990407,1079.136597,-135.555557,57.777779,-442.500000,-6.370318,-4.970249,0.560028,258
-23.980814,71.942444,1031.175049,-128.888885,71.111115,-440.000000,-6.930346,-4.830242,0.280014,259
-47.961628,47.961628,1055.155884,-131.111115,62.222221,-442.500000,-9.660483,-3.360168,0.630032,260
-23.980814,0.000000,1079.136597,-128.888885,64.444443,-445.000000,-11.200561,-2.590130,0.840042,261
0.000000,35.971222,1067.146240,-131.111115,55.555557,-442.500000,-12.320616,-1.330067,0.420021,262
-47.961628,47.961628,1031.175049,-126.666664,68.888885,-442.500000,-12.880644,0.350018,-0.560028,263
-23.980814,11.990407,971.222961,-135.555557,60.000000,-442.500000,-10.850543,-1.050053,-1.470073,264
-167.865707,71.942444,1079.136597,-128.888885,71.111115,-440.000000,-9.590480,-0.280014,-1.470073,265
-59.952034,23.980814,1055.155884,-131.111115,57.777779,-442.500000,-14.490725,2.030102,-0.140007,266
-47.961628,47.961628,1055.155884,-128.888885,68.888885,-440.000000,-13.090654,0.980049,-0.210010,267
-47.961628,47.961628,1043.165405,-131.111115,66.666664,-437.500000,-15.120756,1.330067,-0.770038,268
0.000000,23.980814,1055.155884,-128.888885,68.888885,-442.500000,-14.350718,1.960098,-0.350018,269
-23.980814,11.990407,1043.165405,-135.555557,55.555557,-440.000000,-13.160658,1.750087,0.000000,270
-95.923256,95.923256,1103.117432,-128.888885,68.888885,-440.000000,-14.560728,1.820091,-1.120056,271
23.980814,23.980814,1031.175049,-133.333328,57.777779,-445.000000,-17.360868,2.940147,-0.770038,272
-71.942444,47.961628,1031.175049,-128.888885,66.666664,-440.000000,-10.150508,-1.050053,-1.470073,273
-47.961628,23.980814,1043.165405,-133.333328,55.555557,-442.500000,-10.780540,-0.560028,-1.680084,274
-23.980814,23.980814,1079.136597,-133.333328,66.666664,-442.500000,-12.810640,0.980049,-0.700035,275
167.865707,23.980814,1031.175049,-133.333328,64.444443,-442.500000,-12.460623,0.560028,-0.210010,276
-11.990407,35.971222,1031.175049,-133.333328,71.111115,-437.500000,-10.990550,1.050053,0.140007,277
-35.971222,35.971222,1055.155884,-135.555557,60.000000,-442.500000,-11.200561,0.420021,-0.420021,278
-23.980814,0.000000,1055.155884,-131.111115,68.888885,-437.500000,-10.850543,-0.070004,-0.210010,279
-35.971222,11.990407,1055.155884,-135.555557,55.555557,-445.000000,-9.380469,0.280014,-0.420021,280
-47.961628,23.980814,1079.136597,-133.333328,68.888885,-442.500000,-8.960448,-0.560028,-0.560028,281
-35.971222,23.980814,1067.146240,-133.333328,57.777779,-442.500000,-9.940497,-0.560028,-0.980049,282
-47.961628,23.980814,1031.175049,-133.333328,66.666664,-442.500000,-10.430522,-1.190060,-0.560028,283
-11.990407,35.971222,1043.165405,-137.777771,60.000000,-442.500000,-10.500525,-0.840042,-0.980049,284
-71.942444,23.980814,1055.155884,-128.888885,73.333336,-442.500000,-9.800490,-0.840042,-0.490025,285
-23.980814,35.971222,1055.155884,-137.777771,62.222221,-442.500000,-9.170459,-0.420021,-0.490025,286
0.000000,0.000000,1055.155884,-131.111115,66.666664,-440.000000,-9.660483,-0.770038,-0.910046,287
-11.990407,11.990407,1043.165405,-133.333328,60.000000,-442.500000,-8.610431,0.070004,-0.420021,288
-23.980814,23.980814,1055.155884,-133.333328,68.888885,-437.500000,-7.910396,-0.280014,0.770038,289
-35.971222,11.990407,1031.175049,-135.555557,64.444443,-442.500000,-6.790339,-0.560028,0.420021,290
-47.961628,23.980814,1031.175049,-133.333328,64.444443,-445.000000,-8.680434,0.210010,-0.560028,291
-11.990407,23.980814,1055.155884,-133.333328,62.222221,-440.000000,-9.380469,0.420021,-0.490025,292
-23.980814,23.980814,1055.155884,-128.888885,68.888885,-440.000000,-9.940497,0.630032,-0.280014,293
0.000000,23.980814,1043.165405,-135.555557,57.777779,-442.500000,-10.010501,0.700035,-1.050053,294
-23.980814,47.961628,1079.136597,-131.111115,73.333336,-440.000000,-7.840392,0.280014,0.280014,295
-23.980814,35.971222,1043.165405,-135.555557,57.777779,-442.500000,-7.840392,0.420021,-0.280014,296
-23.980814,0.000000,1031.175049,-128.888885,71.111115,-440.000000,-8.190410,1.190060,-0.560028,297
-23.980814,35.971222,1055.155884,-131.111115,64.444443,-440.000000,-7.770389,1.260063,-0.350018,298
0.000000,47.961628,1031.175049,-131.111115,71.111115,-440.000000,-6.440322,1.050053,0.070004,299
-35.971222,59.952034,1031.175049,-133.333328,55.555557,-440.000000,-6.230311,1.330067,0.560028,300
-47.961628,23.980814,1055.155884,-133.333328,68.888885,-437.500000,-4.410221,1.050053,0.910046,301
-35.971222,35.971222,1055.155884,-137.777771,62.222221,-442.500000,-4.200210,0.210010,-0.070004,302
0.000000,-23.980814,1031.175049,-131.111115,71.111115,-442.500000,-4.410221,0.280014,0.070004,303
-23.980814,11.990407,1043.165405,-135.555557,57.777779,-445.000000,-3.780189,-0.280014,0.350018,304
-23.980814,23.980814,1079.136597,-131.111115,66.666664,-442.500000,-3.360168,-0.840042,-0.420021,305
-23.980814,11.990407,1067.146240,-131.111115,64.444443,-442.500000,-2.660133,-0.140007,0.000000,306
-23.980814,0.000000,1055.155884,-128.888885,71.111115,-442.500000,-3.360168,-0.490025,-0.770038,307
-11.990407,35.971222,1055.155884,-133.333328,55.555557,-442.500000,-3.010150,-0.560028,-0.070004,308
-263.788971,23.980814,1247.002319,-131.111115,71.111115,-440.000000,4.550228,-0.420021,2.450123,309
-95.923256,0.000000,1031.175049,-131.111115,55.555557,-445.000000,0.070004,-0.490025,-0.350018,310
-47.961628,0.000000,1031.175049,-128.888885,73.333336,-442.500000,-2.170109,-0.490025,-1.400070,311
0.000000,35.971222,1055.155884,-131.111115,53.333332,-445.000000,-3.150157,0.980049,-0.910046,312
0.000000,71.942444,1007.194214,-133.333328,66.666664,-442.500000,-3.710186,1.680084,-0.700035,313
11.990407,95.923256,1055.155884,-128.888885,60.000000,-445.000000,-3.640182,1.120056,-0.490025,314
-119.904068,-23.980814,1103.117432,-131.111115,68.888885,-440.000000,1.400070,1.330067,1.960098,315
-47.961628,23.980814,1079.136597,-133.333328,55.555557,-445.000000,-2.380119,0.350018,-0.770038,316
-71.942444,23.980814,1079.136597,-126.666664,66.666664,-440.000000,-7.280364,1.470073,-0.070004,317
-83.932854,47.961628,1115.107910,-133.333328,60.000000,-442.500000,-4.830242,0.000000,0.420021,318
-47.961628,23.980814,1055.155884,-128.888885,66.666664,-440.000000,-9.450473,3.990200,-0.070004,319
-107.913666,11.990407,1055.155884,-128.888885,64.444443,-445.000000,-10.150508,3.430171,-0.140007,320
-47.961628,-383.693024,1151.079102,-131.111115,66.666664,-440.000000,-23.941196,3.220161,-2.590130,321
-23.980814,-59.952034,1067.146240,-133.333328,62.222221,-442.500000,-13.580679,0.910046,0.560028,322
47.961628,-167.865707,983.213379,-131.111115,73.333336,-440.000000,-18.060904,5.040252,0.210010,323
-11.990407,-11.990407,1031.175049,-131.111115,57.777779,-445.000000,-13.370668,1.470073,0.420021,324
-191.846512,143.884888,1127.098267,-131.111115,68.888885,-442.500000,-13.300665,0.840042,-0.420021,325
-71.942444,35.971222,1055.155884,-135.555557,60.000000,-442.500000,-18.060904,3.360168,0.070004,326
-143.884888,0.000000,1103.117432,-128.888885,73.333336,-437.500000,-11.690584,-2.240112,0.070004,327
-47.961628,23.980814,1067.146240,-135.555557,66.666664,-437.500000,-20.791040,3.570179,-0.560028,328
-167.865707,23.980814,1127.098267,-131.111115,68.888885,-435.000000,-16.170809,-0.280014,-1.330067,329
-59.952034,23.980814,1055.155884,-137.777771,60.000000,-442.500000,-23.031153,2.870144,0.070004,330
95.923256,-23.980814,935.251770,-131.111115,73.333336,-440.000000,-24.781239,1.260063,0.210010,331
-23.980814,23.980814,1019.184631,-137.777771,62.222221,-442.500000,-26.251312,2.170109,2.170109,332
-47.961628,0.000000,1055.155884,-131.111115,66.666664,-437.500000,-27.791389,2.380119,3.710186,333
0.000000,47.961628,1019.184631,-137.777771,62.222221,-440.000000,-27.651382,1.330067,5.670284,334
23.980814,-71.942444,1031.175049,-135.555557,66.666664,-435.000000,-21.631083,2.310116,7.770389,335
11.990407,23.980814,1031.175049,-133.333328,66.666664,-437.500000,-15.960798,3.430171,4.550228,336
-71.942444,23.980814,1031.175049,-133.333328,75.555557,-435.000000,-15.050753,2.590130,3.850193,337
0.000000,11.990407,1043.165405,-137.777771,60.000000,-440.000000,-13.930696,1.820091,1.680084,338
-23.980814,-23.980814,1031.175049,-137.777771,71.111115,-435.000000,-11.690584,1.330067,-0.280014,339
-11.990407,0.000000,1055.155884,-137.777771,55.555557,-437.500000,-8.190410,-0.560028,-1.890095,340
-47.961628,23.980814,1103.117432,-133.333328,73.333336,-440.000000,-7.420371,0.140007,-2.450123,341
-35.971222,-23.980814,1055.155884,-135.555557,60.000000,-440.000000,-8.680434,-0.070004,-1.400070,342
-47.961628,71.942444,1055.155884,-135.555557,66.666664,-435.000000,-8.540427,0.840042,-0.770038,343
-23.980814,59.952034,1043.165405,-137.777771,55.555557,-440.000000,-10.150508,1.260063,0.770038,344
0.000000,0.000000,1043.165405,-135.555557,68.888885,-435.000000,-10.150508,0.910046,3.220161,345
239.808136,59.952034,1055.155884,-137.777771,60.000000,-437.500000,-8.960448,-2.380119,10.430522,346
-191.846512,-23.980814,983.213379,-133.333328,73.333336,-435.000000,2.450123,-3.360168,23.381168,347
-119.904068,11.990407,1055.155884,-135.555557,60.000000,-442.500000,3.570179,-1.610080,14.700735,348
23.980814,71.942444,1007.194214,-131.111115,71.111115,-435.000000,3.920196,0.350018,14.630732,349
-107.913666,95.923256,1055.155884,-131.111115,66.666664,-440.000000,9.310466,-2.030102,11.480575,350
71.942444,-47.961628,1103.117432,-133.333328,64.444443,-437.500000,10.430522,-1.750087,10.150508,351
-131.894485,11.990407,1067.146240,-131.111115,62.222221,-445.000000,9.870494,-1.890095,5.040252,352
-95.923256,47.961628,1055.155884,-128.888885,73.333336,-442.500000,8.190410,-3.080154,3.360168,353
-71.942444,47.961628,1043.165405,-133.333328,60.000000,-440.000000,10.990550,-3.850193,3.080154,354
-47.961628,95.923256,1007.194214,-131.111115,73.333336,-437.500000,13.090654,-4.060203,0.980049,355
-71.942444,83.932854,1043.165405,-133.333328,60.000000,-442.500000,15.330767,-5.110256,0.000000,356
-167.865707,71.942444,1055.155884,-128.888885,73.333336,-437.500000,17.710886,-5.670284,-1.960098,357
-71.942444,11.990407,1115.107910,-128.888885,66.666664,-445.000000,20.791040,-5.460273,-3.430171,358
-71.942444,47.961628,1151.079102,-126.666664,77.777779,-442.500000,23.731186,-7.070354,-2.170109,359
-95.923256,59.952034,1115.107910,-124.444443,60.000000,-445.000000,23.031153,-6.440322,3.990200,360
479.616272,47.961628,1342.925659,-124.444443,73.333336,-445.000000,21.351068,-4.690235,6.860343,361
-11.990407,35.971222,1175.059937,-128.888885,55.555557,-445.000000,21.141058,0.840042,18.900946,362
-119.904068,47.961628,1223.021484,-120.000000,71.111115,-445.000000,15.120756,-4.200210,23.521175,363
-59.952034,11.990407,1258.992798,-126.666664,62.222221,-447.500000,-0.980049,-1.260063,29.821491,364
-23.980814,47.961628,1199.040771,-122.222221,66.666664,-440.000000,-23.171160,-1.820091,33.741688,365
-35.971222,23.980814,1247.002319,-122.222221,68.888885,-442.500000,-48.652431,-3.010150,35.071754,366
47.961628,143.884888,1414.868042,-122.222221,75.555557,-437.500000,-79.944000,0.070004,34.861744,367
71.942444,167.865707,1510.791260,-128.888885,62.222221,-442.500000,-108.225410,15.540777,31.921597,368
47.961628,167.865707,1822.541870,-126.666664,75.555557,-440.000000,-128.736435,38.011902,27.161358,369
23.980814,143.884888,1954.436401,-135.555557,68.888885,-442.500000,-132.796646,46.832340,18.970949,370
-95.923256,71.942444,2350.119873,-137.777771,75.555557,-432.500000,-121.876099,54.322716,14.560728,371
-119.904068,59.952034,2470.023926,-137.777771,66.666664,-435.000000,-94.434723,48.022400,10.500525,372
-167.865707,95.923256,2709.832031,-140.000000,77.777779,-435.000000,-66.433319,31.011551,7.210361,373
-179.856110,131.894485,2721.822510,-142.222229,75.555557,-435.000000,-38.921947,8.260413,4.550228,374
-191.846512,71.942444,2757.793701,-140.000000,82.222221,-430.000000,-10.780540,0.000000,-2.380119,375
-131.894485,47.961628,2781.774414,-144.444443,71.111115,-435.000000,17.360868,-12.740637,-7.700385,376
0.000000,23.980814,2637.889648,-142.222229,84.444443,-440.000000,38.851944,-14.420721,-15.120756,377
83.932854,23.980814,2601.918457,-144.444443,71.111115,-442.500000,57.752888,-11.900595,-20.231012,378
119.904068,0.000000,2541.966309,-140.000000,82.222221,-440.000000,70.283516,-10.360518,-23.381168,379
143.884888,-35.971222,2434.052734,-142.222229,80.000000,-445.000000,74.833740,-4.900245,-25.761288,380
167.865707,0.000000,2374.100586,-140.000000,77.777779,-445.000000,78.613930,8.260413,-29.961498,381
155.875290,-35.971222,2314.148682,-135.555557,71.111115,-452.500000,78.753937,20.931047,-32.411621,382
167.865707,-71.942444,2062.350098,-128.888885,86.666664,-450.000000,81.204063,34.511726,-34.091705,383
155.875290,-83.932854,1990.407593,-137.777771,71.111115,-457.500000,90.374519,42.422123,-34.581730,384
191.846512,0.000000,1678.656982,-128.888885,86.666664,-455.000000,101.155060,40.882046,-34.091705,385
191.846512,-35.971222,1582.733765,-128.888885,75.555557,-462.500000,107.245361,40.672035,-32.061604,386
191.846512,-23.980814,1294.963989,-128.888885,91.111115,-460.000000,106.475327,42.072105,-29.681484,387
215.827332,-59.952034,1175.059937,-124.444443,86.666664,-465.000000,102.695137,43.192162,-27.301365,388
335.731415,-71.942444,839.328491,-117.777779,97.777779,-462.500000,101.225060,41.372070,-25.761288,389
299.760193,-11.990407,731.414856,-120.000000,84.444443,-472.500000,98.774940,28.911446,-21.911097,390
191.846512,23.980814,479.616272,-115.555557,97.777779,-472.500000,98.424919,16.940847,-22.471125,391
179.856110,11.990407,395.683441,-117.777779,86.666664,-477.500000,98.634933,5.740287,-22.261114,392
167.865707,71.942444,215.827332,-113.333336,97.777779,-477.500000,99.544975,-10.010501,-21.211061,393
119.904068,35.971222,83.932854,-111.111115,88.888885,-482.500000,106.895348,-26.811340,-19.040953,394
119.904068,119.904068,-143.884888,-104.444443,93.333336,-482.500000,110.535530,-48.512424,-14.840742,395
107.913666,59.952034,-263.788971,-104.444443,91.111115,-487.500000,105.705284,-67.973396,-8.750438,396
95.923256,47.961628,-503.597107,-93.333336,93.333336,-492.500000,90.864548,-83.444176,-1.820091,397
71.942444,47.961628,-575.539551,-97.777779,80.000000,-502.500000,80.014000,-89.534477,1.050053,398
-47.961628,71.942444,-623.501160,-91.111115,88.888885,-500.000000,55.582779,-100.805038,5.530277,399
-71.942444,71.942444,-563.549133,-97.777779,77.777779,-502.500000,27.931396,-99.474976,7.910396,400
-191.846512,23.980814,-455.635468,-88.888885,84.444443,-507.500000,10.570529,-85.824295,8.470424,401
-239.808136,11.990407,-431.654663,-93.333336,68.888885,-507.500000,4.200210,-75.673782,8.120406,402
-383.693024,-23.980814,-287.769775,-91.111115,77.777779,-510.000000,0.140007,-71.333565,7.700385,403
-395.683441,-71.942444,-251.798553,-93.333336,66.666664,-515.000000,-3.500175,-64.053200,6.930346,404
-527.577942,-119.904068,-119.904068,-91.111115,80.000000,-510.000000,-5.180259,-52.572628,6.580329,405
-479.616272,-143.884888,35.971222,-91.111115,64.444443,-517.500000,-10.710536,-34.371719,7.490375,406
-383.693024,-167.865707,143.884888,-88.888885,75.555557,-515.000000,-14.630732,-23.941196,6.370318,407
-395.683441,-155.875290,179.856110,-97.777779,64.444443,-517.500000,-25.061253,1.050053,4.900245,408
-263.788971,-119.904068,287.769775,-93.333336,82.222221,-512.500000,-40.952049,30.101505,5.390270,409
-227.817734,-155.875290,263.788971,-95.555557,75.555557,-512.500000,-57.612881,56.912846,4.060203,410
-191.846512,-167.865707,479.616272,-95.555557,75.555557,-512.500000,-71.753586,77.283867,2.170109,411
-179.856110,-95.923256,491.606689,-102.222221,75.555557,-505.000000,-84.424225,94.434723,-0.210010,412
-179.856110,-47.961628,695.443604,-100.000000,91.111115,-497.500000,-94.784737,107.875397,-2.450123,413
-95.923256,-23.980814,815.347656,-104.444443,82.222221,-502.500000,-99.544975,114.385719,-4.830242,414
-47.961628,0.000000,887.290100,-106.666664,100.000000,-497.500000,-102.485123,117.675888,-6.930346,415
-47.961628,-23.980814,875.299744,-111.111115,91.111115,-497.500000,-101.645081,118.235916,-8.890445,416
-23.980814,-23.980814,863.309326,-117.777779,106.666664,-487.500000,-96.814842,110.605530,-9.940497,417
23.980814,11.990407,875.299744,-117.777779,104.444443,-487.500000,-81.834091,94.714737,-10.080504,418
95.923256,95.923256,839.328491,-117.777779,113.333336,-482.500000,-63.493176,76.863846,-4.550228,419
143.884888,47.961628,839.328491,-122.222221,100.000000,-485.000000,-46.622330,63.283165,2.590130,420
167.865707,95.923256,863.309326,-120.000000,113.333336,-482.500000,-31.641582,53.062653,8.190410,421
167.865707,119.904068,827.338074,-122.222221,106.666664,-477.500000,-19.250963,42.352119,12.950647,422
143.884888,119.904068,839.328491,-120.000000,115.555557,-475.000000,-10.290515,33.461674,14.770739,423
167.865707,107.913666,839.328491,-124.444443,104.444443,-480.000000,-3.640182,21.701086,15.190760,424
215.827332,215.827332,959.232544,-122.222221,115.555557,-477.500000,2.310116,5.740287,14.700735,425
275.779358,83.932854,803.357300,-120.000000,113.333336,-475.000000,4.690235,-3.920196,15.400770,426
143.884888,0.000000,911.270935,-115.555557,122.222221,-475.000000,9.450473,-8.610431,12.600630,427
167.865707,59.952034,1019.184631,-120.000000,102.222221,-482.500000,8.610431,-21.141058,16.800840,428
47.961628,0.000000,1151.079102,-117.777779,115.555557,-472.500000,3.150157,-12.740637,8.820441,429
0.000000,-11.990407,1211.031128,-117.777779,104.444443,-482.500000,1.400070,-6.790339,5.740287,430
-95.923256,-95.923256,1390.887207,-113.333336,117.777779,-475.000000,1.120056,-8.260413,7.560378,431
-155.875290,-95.923256,1426.858398,-115.555557,106.666664,-477.500000,2.450123,-12.810640,6.580329,432
-191.846512,-95.923256,1510.791260,-115.555557,111.111115,-482.500000,6.720336,-15.470774,2.730137,433
-227.817734,-119.904068,1510.791260,-115.555557,100.000000,-480.000000,9.310466,-14.070704,-1.540077,434
-287.769775,-167.865707,1558.752930,-113.333336,115.555557,-477.500000,8.190410,-12.530626,-3.430171,435
-323.740997,-167.865707,1534.772095,-115.555557,104.444443,-485.000000,8.540427,-8.610431,-5.320266,436
-335.731415,-167.865707,1462.829712,-108.888885,117.777779,-482.500000,8.680434,-3.640182,-7.770389,437
-287.769775,-167.865707,1402.877686,-113.333336,102.222221,-485.000000,9.660483,3.850193,-10.570529,438
-263.788971,-143.884888,1294.963989,-113.333336,115.555557,-480.000000,13.930696,10.780540,-12.110605,439
-263.788971,-83.932854,1342.925659,-113.333336,111.111115,-485.000000,20.161009,16.590830,-11.410571,440
-191.846512,23.980814,1199.040771,-113.333336,108.888885,-482.500000,25.761288,23.731186,-9.870494,441
-167.865707,0.000000,1199.040771,-115.555557,106.666664,-485.000000,29.751488,30.871544,-9.870494,442
-215.827332,0.000000,1055.155884,-108.888885,120.000000,-480.000000,29.751488,31.081554,-9.030452,443
-119.904068,0.000000,971.222961,-106.666664,111.111115,-485.000000,29.401470,28.701435,-8.540427,444
-47.961628,0.000000,815.347656,-106.666664,117.777779,-480.000000,26.041302,21.211061,-8.330417,445
0.000000,11.990407,731.414856,-108.888885,108.888885,-482.500000,21.071054,11.970598,-10.290515,446
107.913666,11.990407,623.501160,-106.666664,120.000000,-482.500000,16.660833,4.060203,-11.410571,447
107.913666,35.971222,563.549133,-104.444443,113.333336,-480.000000,12.460623,-3.430171,-11.340568,448
23.980814,23.980814,647.481995,-102.222221,124.444443,-480.000000,5.810291,-8.540427,-10.570529,449
-11.990407,0.000000,647.481995,-108.888885,106.666664,-485.000000,0.420021,-11.060554,-9.800490,450
-47.961628,-23.980814,719.424438,-104.444443,117.777779,-482.500000,-2.450123,-10.570529,-9.870494,451
-143.884888,-35.971222,827.338074,-106.666664,108.888885,-485.000000,-3.220161,-5.880294,-9.520476,452
-191.846512,-23.980814,911.270935,-102.222221,117.777779,-485.000000,-0.700035,-2.870144,-8.610431,453
-203.836914,-47.961628,947.242188,-108.888885,106.666664,-482.500000,2.240112,2.520126,-7.840392,454
-239.808136,-119.904068,983.213379,-106.666664,113.333336,-480.000000,8.750438,4.340217,-6.090304,455
-215.827332,-95.923256,1007.194214,-102.222221,111.111115,-482.500000,12.530626,3.640182,-5.530277,456
-239.808136,-119.904068,983.213379,-102.222221,120.000000,-482.500000,11.690584,3.500175,-5.670284,457
-215.827332,-119.904068,1007.194214,-106.666664,106.666664,-485.000000,6.020301,3.780189,-4.690235,458
-191.846512,-143.884888,1031.175049,-102.222221,122.222221,-482.500000,0.350018,4.970249,-4.340217,459
-179.856110,-155.875290,1031.175049,-106.666664,108.888885,-482.500000,-5.180259,6.230311,-3.850193,460
-215.827332,-215.827332,1031.175049,-102.222221,120.000000,-480.000000,-12.460623,6.510325,-3.920196,461
-191.846512,-167.865707,1055.155884,-104.444443,108.888885,-485.000000,-16.940847,5.320266,-3.290164,462
-191.846512,-167.865707,1103.117432,-102.222221,115.555557,-482.500000,-19.320967,4.200210,-2.660133,463
-179.856110,-179.856110,1127.098267,-108.888885,104.444443,-485.000000,-24.921246,0.350018,-1.470073,464
-191.846512,-191.846512,1151.079102,-102.222221,124.444443,-477.500000,-29.471474,-4.970249,1.260063,465
-191.846512,-179.856110,1175.059937,-111.111115,108.888885,-482.500000,-33.181660,-9.520476,2.240112,466
-191.846512,-191.846512,1151.079102,-106.666664,117.777779,-477.500000,-33.811691,-18.060904,2.240112,467
-191.846512,-191.846512,1139.088623,-113.333336,104.444443,-482.500000,-31.221561,-27.511375,2.240112,468
-1079.136597,527.577942,-95.923256,-108.888885,117.777779,-482.500000,-37.941898,-26.041302,2.730137,469
-755.395630,-131.894485,671.462830,-111.111115,111.111115,-485.000000,-56.002800,5.950297,-20.371019,470
-23.980814,-191.846512,1247.002319,-113.333336,113.333336,-482.500000,-31.431572,-11.550578,-9.100455,471
-155.875290,-131.894485,1330.935181,-115.555557,106.666664,-485.000000,-32.831642,-15.190760,-8.330417,472
-215.827332,-167.865707,1366.906372,-106.666664,113.333336,-477.500000,-29.541477,-29.191460,-3.150157,473
-287.769775,-71.942444,1294.963989,-117.777779,102.222221,-482.500000,-27.861393,-36.471825,-0.840042,474
-311.750580,-167.865707,1223.021484,-113.333336,113.333336,-485.000000,-20.721037,-28.001400,-2.520126,475
-287.769775,-47.961628,1151.079102,-115.555557,100.000000,-487.500000,-10.010501,-19.320967,-6.020301,476
-191.846512,0.000000,1055.155884,-117.777779,113.333336,-487.500000,0.280014,-7.560378,-10.360518,477
-155.875290,0.000000,1007.194214,-111.111115,106.666664,-485.000000,20.721037,-9.520476,-17.220861,478
-167.865707,-191.846512,815.347656,-113.333336,115.555557,-485.000000,35.351768,-17.430872,-14.980749,479
-71.942444,-107.913666,743.405273,-113.333336,100.000000,-490.000000,35.911797,-20.861044,-10.360518,480
11.990407,-11.990407,659.472412,-108.888885,108.888885,-490.000000,33.951698,-20.651033,-6.930346,481
-95.923256,-527.577942,587.529968,-111.111115,100.000000,-490.000000,27.091354,-12.390619,-6.580329,482
191.846512,455.635468,911.270935,-111.111115,111.111115,-492.500000,8.610431,-18.760939,17.640882,483
215.827332,263.788971,851.318909,-115.555557,95.555557,-492.500000,1.190060,-14.980749,7.350368,484
119.904068,23.980814,959.232544,-106.666664,102.222221,-487.500000,6.720336,8.960448,-3.360168,485
83.932854,71.942444,947.242188,-106.666664,102.222221,-490.000000,-14.280714,16.030802,1.890095,486
191.846512,23.980814,1007.194214,-106.666664,106.666664,-487.500000,-36.191811,11.690584,4.480224,487
167.865707,143.884888,1055.155884,-117.777779,95.555557,-485.000000,-52.082603,3.500175,4.690235,488
167.865707,143.884888,1103.117432,-113.333336,106.666664,-487.500000,-61.043053,11.970598,0.910046,489
83.932854,71.942444,1115.107910,-117.777779,95.555557,-487.500000,-68.043404,14.280714,-1.750087,490
-71.942444,71.942444,1223.021484,-115.555557,108.888885,-482.500000,-72.103607,10.500525,-1.540077,491
-107.913666,59.952034,1270.983154,-117.777779,97.777779,-485.000000,-79.313965,5.460273,-0.280014,492
-191.846512,0.000000,1247.002319,-117.777779,104.444443,-482.500000,-82.114105,7.910396,2.660133,493
-191.846512,-23.980814,1223.021484,-124.444443,100.000000,-480.000000,-73.083656,9.730487,4.060203,494
-215.827332,-71.942444,1199.040771,-126.666664,108.888885,-477.500000,-48.862442,2.800140,3.150157,495
-251.798553,-47.961628,1151.079102,-128.888885,100.000000,-485.000000,-23.451172,-5.250263,2.800140,496
-191.846512,-23.980814,1079.136597,-122.222221,108.888885,-480.000000,-4.060203,-10.010501,4.480224,497
-191.846512,-59.952034,1091.127075,-128.888885,100.000000,-485.000000,10.430522,-14.490725,6.300315,498
-191.846512,-47.961628,1055.155884,-122.222221,108.888885,-485.000000,13.020651,-13.510675,9.380469,499
-191.846512,-35.971222,1043.165405,-122.222221,102.222221,-485.000000,11.200561,-12.320616,11.200561,500
-191.846512,-47.961628,935.251770,-120.000000,102.222221,-482.500000,6.930346,-9.730487,13.580679,501
-83.932854,71.942444,995.203796,-126.666664,97.777779,-485.000000,4.830242,-7.700385,14.980749,502
-23.980814,-47.961628,863.309326,-117.777779,104.444443,-485.000000,12.040602,-8.820441,7.280364,503
11.990407,-11.990407,803.357300,-120.000000,97.777779,-487.500000,14.070704,-10.990550,4.760238,504
23.980814,0.000000,671.462830,-120.000000,104.444443,-485.000000,8.120406,-11.410571,2.660133,505
59.952034,-11.990407,683.453186,-120.000000,93.333336,-485.000000,4.200210,-5.110256,-0.910046,506
71.942444,0.000000,719.424438,-117.777779,104.444443,-482.500000,5.180259,4.130207,-5.040252,507
83.932854,11.990407,779.376465,-117.777779,102.222221,-487.500000,16.100805,3.570179,-11.760588,508
47.961628,47.961628,935.251770,-117.777779,106.666664,-487.500000,24.081203,0.700035,-16.590830,509
11.990407,47.961628,983.213379,-117.777779,93.333336,-487.500000,36.891846,1.190060,-24.361217,510
-167.865707,-23.980814,1055.155884,-115.555557,108.888885,-485.000000,39.061954,9.660483,-27.511375,511
-167.865707,0.000000,1079.136597,-120.000000,93.333336,-490.000000,39.481976,15.330767,-27.301365,512
-215.827332,-47.961628,1103.117432,-113.333336,108.888885,-485.000000,37.801891,15.610781,-23.941196,513
-179.856110,-71.942444,1235.011963,-117.777779,95.555557,-490.000000,34.511726,11.200561,-17.010851,514
-59.952034,-35.971222,1438.848877,-113.333336,104.444443,-487.500000,51.102554,-25.271263,-18.690935,515
-59.952034,35.971222,1223.021484,-113.333336,100.000000,-495.000000,71.893593,-44.172211,-24.921246,516
-575.539551,-23.980814,1726.618652,-106.666664,104.444443,-492.500000,46.202312,-65.593277,-10.990550,517
-371.702637,-143.884888,1306.954346,-108.888885,86.666664,-497.500000,5.670284,-89.884499,16.310816,518
-311.750580,23.980814,1127.098267,-104.444443,95.555557,-495.000000,-15.540777,-100.245010,15.400770,519
-347.721802,0.000000,1091.127075,-106.666664,84.444443,-505.000000,15.400770,-91.914597,12.320616,520
-71.942444,71.942444,935.251770,-106.666664,88.888885,-500.000000,11.200561,-65.453270,14.910746,521
0.000000,11.990407,899.280518,-104.444443,80.000000,-505.000000,4.970249,-28.771439,9.310466,522
-47.961628,0.000000,815.347656,-102.222221,84.444443,-500.000000,9.940497,2.310116,-3.570179,523
-83.932854,47.961628,827.338074,-104.444443,82.222221,-502.500000,9.940497,29.891495,-9.870494,524
-191.846512,-23.980814,887.290100,-104.444443,93.333336,-500.000000,6.090304,49.842491,-10.290515,525
-131.894485,-23.980814,887.290100,-106.666664,86.666664,-500.000000,-3.360168,65.033249,-10.220511,526
-167.865707,0.000000,887.290100,-106.666664,95.555557,-495.000000,-20.721037,71.053551,-6.510325,527
-143.884888,-11.990407,863.309326,-106.666664,86.666664,-497.500000,-28.911446,77.633881,-2.800140,528
-191.846512,0.000000,863.309326,-104.444443,102.222221,-492.500000,-41.442074,75.533775,3.640182,529
-119.904068,0.000000,863.309326,-108.888885,97.777779,-495.000000,-52.152607,67.483376,7.280364,530
-47.961628,0.000000,1031.175049,-113.333336,104.444443,-487.500000,-57.822891,56.912846,9.800490,531
-83.932854,23.980814,1055.155884,-115.555557,100.000000,-487.500000,-55.092754,45.012253,6.090304,532
-167.865707,-23.980814,1055.155884,-108.888885,111.111115,-485.000000,-49.982498,26.041302,14.210711,533
-179.856110,-11.990407,1091.127075,-115.555557,97.777779,-490.000000,-43.052155,10.640532,12.180609,534
-191.846512,-23.980814,1103.117432,-111.111115,106.666664,-485.000000,-34.371719,-5.530277,11.900595,535
-179.856110,-11.990407,1139.088623,-115.555557,97.777779,-487.500000,-32.551628,-17.710886,12.250612,536
-191.846512,0.000000,1103.117432,-115.555557,108.888885,-485.000000,-32.201611,-22.681135,12.390619,537
-191.846512,0.000000,1103.117432,-117.777779,102.222221,-487.500000,-26.671333,-29.401470,11.200561,538
-191.846512,-47.961628,1103.117432,-111.111115,104.444443,-482.500000,-17.010851,-31.431572,9.870494,539
-179.856110,-11.990407,1127.098267,-115.555557,91.111115,-487.500000,-6.440322,-30.031502,7.560378,540
-167.865707,0.000000,1151.079102,-115.555557,104.444443,-487.500000,3.850193,-27.091354,5.880294,541
-155.875290,-11.990407,1187.050293,-117.777779,95.555557,-487.500000,13.930696,-24.991249,2.100105,542
-143.884888,-95.923256,1247.002319,-111.111115,102.222221,-487.500000,26.811340,-23.311165,-1.960098,543
-155.875290,-59.952034,1211.031128,-113.333336,93.333336,-490.000000,38.851944,-24.571228,-5.180259,544
-215.827332,-23.980814,1223.021484,-111.111115,97.777779,-487.500000,42.842144,-25.131256,-8.260413,545
-191.846512,-35.971222,1151.079102,-111.111115,97.777779,-490.000000,38.571930,-25.831291,-9.450473,546
-143.884888,-143.884888,1055.155884,-106.666664,100.000000,-490.000000,22.681135,-28.351418,-10.850543,547
-95.923256,-95.923256,1007.194214,-111.111115,82.222221,-492.500000,10.710536,-29.891495,-12.110605,548
-47.961628,-47.961628,959.232544,-104.444443,97.777779,-495.000000,6.300315,-27.511375,-15.890795,549
-35.971222,-167.865707,959.232544,-108.888885,84.444443,-497.500000,0.840042,-24.011200,-20.091005,550
-167.865707,23.980814,971.222961,-104.444443,97.777779,-495.000000,-7.560378,-19.530977,-21.981100,551
-95.923256,-35.971222,947.242188,-108.888885,84.444443,-500.000000,-18.200911,-16.450823,-20.511026,552
-191.846512,23.980814,1031.175049,-108.888885,93.333336,-497.500000,-25.761288,-15.260763,-15.190760,553
-167.865707,11.990407,1067.146240,-115.555557,84.444443,-500.000000,-30.381519,-11.970598,-9.520476,554
-215.827332,23.980814,1270.983154,-111.111115,91.111115,-497.500000,-29.471474,-8.820441,-5.530277,555
-191.846512,83.932854,1258.992798,-115.555557,80.000000,-497.500000,-17.500875,3.360168,-3.920196,556
-191.846512,23.980814,1223.021484,-108.888885,95.555557,-495.000000,-7.280364,8.750438,-0.070004,557
-179.856110,35.971222,1258.992798,-113.333336,77.777779,-497.500000,7.560378,1.330067,0.560028,558
-215.827332,71.942444,1247.002319,-108.888885,93.333336,-497.500000,26.041302,-8.470424,-1.120056,559
-191.846512,71.942444,1294.963989,-111.111115,86.666664,-497.500000,44.522228,-18.690935,-1.750087,560
-191.846512,71.942444,1318.944824,-106.666664,88.888885,-500.000000,53.062653,-24.851242,-1.470073,561
-167.865707,59.952034,1247.002319,-106.666664,80.000000,-500.000000,52.712635,-27.301365,1.190060,562
-119.904068,95.923256,1247.002319,-104.444443,86.666664,-497.500000,42.142109,-28.421421,3.570179,563
-71.942444,47.961628,1127.098267,-104.444443,80.000000,-505.000000,27.371368,-27.861393,5.250263,564
0.000000,0.000000,935.251770,-97.777779,88.888885,-505.000000,21.771090,-27.791389,6.230311,565
-47.961628,0.000000,947.242188,-102.222221,75.555557,-505.000000,14.910746,-30.311516,7.700385,566
-47.961628,23.980814,887.290100,-102.222221,86.666664,-502.500000,9.730487,-32.621632,8.190410,567
-47.961628,-11.990407,887.290100,-100.000000,80.000000,-505.000000,6.020301,-33.741688,8.330417,568
-119.904068,0.000000,1031.175049,-95.555557,86.666664,-507.500000,1.400070,-33.461674,8.960448,569
-131.894485,0.000000,1007.194214,-97.777779,68.888885,-505.000000,-3.430171,-31.641582,9.170459,570
-191.846512,0.000000,1031.175049,-93.333336,84.444443,-507.500000,-5.880294,-31.431572,9.380469,571
-167.865707,0.000000,1055.155884,-104.444443,71.111115,-510.000000,-6.370318,-32.131607,9.450473,572
-119.904068,23.980814,1079.136597,-97.777779,82.222221,-512.500000,-8.540427,-32.761639,9.310466,573
-143.884888,11.990407,1091.127075,-97.777779,66.666664,-512.500000,-9.310466,-32.411621,9.170459,574
-167.865707,71.942444,1055.155884,-95.555557,75.555557,-510.000000,-10.430522,-32.621632,7.350368,575
-167.865707,23.980814,1079.136597,-97.777779,73.333336,-512.500000,-8.960448,-33.811691,4.690235,576
-191.846512,47.961628,1127.098267,-97.777779,80.000000,-512.500000,-9.520476,-34.021702,3.430171,577
-263.788971,23.980814,1163.069458,-102.222221,60.000000,-517.500000,-7.560378,-31.011551,2.170109,578
-191.846512,23.980814,1151.079102,-93.333336,71.111115,-512.500000,-4.340217,-28.211411,-0.490025,579
-179.856110,47.961628,1175.059937,-102.222221,60.000000,-517.500000,0.280014,-27.791389,-4.130207,580
-167.865707,23.980814,1223.021484,-95.555557,77.777779,-517.500000,4.760238,-31.081554,-7.700385,581
-179.856110,35.971222,1247.002319,-97.777779,57.777779,-520.000000,2.380119,-36.611832,-7.770389,582
-191.846512,95.923256,1223.021484,-95.555557,64.444443,-515.000000,-1.890095,-38.921947,-7.140357,583
-191.846512,107.913666,1294.963989,-97.777779,55.555557,-522.500000,-12.250612,-43.332169,-5.530277,584
-179.856110,107.913666,1103.117432,-95.555557,66.666664,-517.500000,-25.551277,-45.922298,-5.180259,585
-191.846512,131.894485,1091.127075,-100.000000,51.111111,-522.500000,-41.232063,-44.592232,-6.930346,586
-167.865707,119.904068,1127.098267,-97.777779,64.444443,-520.000000,-58.452923,-40.532028,-9.100455,587
-167.865707,107.913666,1091.127075,-104.444443,48.888889,-525.000000,-73.083656,-36.261814,-10.430522,588
-191.846512,71.942444,1175.059937,-106.666664,60.000000,-522.500000,-79.593979,-34.931747,-11.060554,589
-167.865707,119.904068,1175.059937,-106.666664,53.333332,-522.500000,-80.644035,-34.791740,-10.920547,590
-143.884888,167.865707,1175.059937,-108.888885,53.333332,-520.000000,-81.834091,-33.671684,-10.080504,591
-47.961628,59.952034,1235.011963,-117.777779,44.444443,-525.000000,-87.294365,-31.851593,-15.820791,592
0.000000,119.904068,1247.002319,-117.777779,55.555557,-520.000000,-89.114456,-29.891495,-10.640532,593
-83.932854,143.884888,1258.992798,-122.222221,42.222221,-522.500000,-98.844940,-34.021702,0.140007,594
-119.904068,-71.942444,1247.002319,-126.666664,55.555557,-522.500000,-113.055656,-32.271614,-1.960098,595
-47.961628,47.961628,1258.992798,-131.111115,40.000000,-520.000000,-115.995804,-32.131607,2.660133,596
-119.904068,167.865707,1247.002319,-131.111115,48.888889,-515.000000,-127.196358,-31.221561,7.770389,597
-119.904068,143.884888,1270.983154,-137.777771,46.666668,-515.000000,-144.627228,-25.551277,3.430171,598
-167.865707,143.884888,1270.983154,-144.444443,51.111111,-515.000000,-161.358063,-19.810991,0.210010,599
-179.856110,155.875290,1258.992798,-153.333328,40.000000,-512.500000,-192.019608,-22.821142,7.490375,600
-839.328491,-1702.637817,839.328491,-157.777771,53.333332,-510.000000,-240.532028,-23.521175,21.491076,601
-203.836914,-59.952034,1187.050293,-166.666672,35.555557,-510.000000,-261.043060,-47.392368,46.552330,602
-143.884888,191.846512,1247.002319,-168.888885,48.888889,-505.000000,-315.715790,-50.122505,60.273014,603
-155.875290,215.827332,1127.098267,-186.666672,37.777779,-500.000000,-357.927887,-28.351418,60.413021,604
-167.865707,47.961628,1007.194214,-193.333328,42.222221,-490.000000,-390.969543,-29.191460,59.152958,605
-131.894485,143.884888,959.232544,-202.222229,44.444443,-490.000000,-424.711243,-45.572281,60.133007,606
-143.884888,47.961628,983.213379,-228.888885,48.888889,-470.000000,-481.064056,-67.203362,59.572979,607
11.990407,131.894485,983.213379,-244.444443,35.555557,-460.000000,-538.466919,-71.683586,61.813091,608
191.846512,167.865707,1031.175049,-253.333328,48.888889,-450.000000,-585.019287,-54.812740,73.433670,609
203.836914,119.904068,851.318909,-271.111115,37.777779,-442.500000,-625.691284,-29.331467,84.354218,610
215.827332,47.961628,911.270935,-284.444458,55.555557,-422.500000,-645.432251,-19.180960,87.784393,611
203.836914,47.961628,815.347656,-300.000000,44.444443,-407.500000,-703.185181,9.730487,92.754639,612
383.693024,143.884888,959.232544,-317.777771,53.333332,-387.500000,-784.459229,45.222263,103.255165,613
251.798553,179.856110,851.318909,-346.666656,60.000000,-332.500000,-903.325195,97.234863,121.246063,614
263.788971,71.942444,863.309326,-362.222229,80.000000,-290.000000,-1054.252686,157.227859,152.817642,615
323.740997,167.865707,551.558716,-377.777771,80.000000,-252.500000,-1226.111328,241.162064,207.560379,616
143.884888,47.961628,359.712219,-382.222229,106.666664,-202.500000,-1388.449463,306.195313,261.813080,617
-47.961628,-47.961628,131.894485,-388.888885,104.444443,-147.500000,-1572.768677,303.325165,294.154724,618
-155.875290,-167.865707,-191.846512,-382.222229,126.666664,-87.500000,-1717.815918,228.071411,311.095551,619
-959.232544,-191.846512,-131.894485,-375.555542,131.111115,-30.000000,-1768.288452,190.269516,309.065460,620
-1127.098267,-503.597107,-287.769775,-355.555542,144.444443,32.500000,-1873.363647,121.036057,308.505432,621
0.000000,-359.712219,-647.481995,-288.888885,151.111115,130.000000,-2005.670288,34.721737,321.246063,622
1366.906372,-503.597107,455.635468,-248.888885,171.111115,175.000000,-1904.305176,-42.282116,304.095215,623
1163.069458,59.952034,575.539551,-220.000000,166.666672,192.500000,-1461.113037,-79.523979,222.471130,624
23.980814,479.616272,1199.040771,-184.444443,177.777771,210.000000,-1075.813843,-104.445221,180.049011,625
-143.884888,419.664246,899.280518,-166.666672,171.111115,217.500000,-880.784058,-76.373817,146.657333,626
-167.865707,503.597107,335.731415,-142.222229,186.666672,225.000000,-824.851257,-76.233810,141.967102,627
-131.894485,491.606689,299.760193,-120.000000,184.444443,232.500000,-777.948914,-100.595032,143.157166,628
-119.904068,383.693024,119.904068,-73.333336,200.000000,237.500000,-735.526794,-110.745537,143.857193,629
-95.923256,383.693024,0.000000,-60.000000,188.888885,232.500000,-627.931396,-121.526077,143.647186,630
71.942444,191.846512,-407.673828,-40.000000,202.222229,235.000000,-523.346191,-115.155762,133.006653,631
143.884888,71.942444,-647.481995,-33.333332,195.555557,232.500000,-427.651398,-91.144562,112.355621,632
623.501160,-527.577942,-1366.906372,-15.555555,211.111115,230.000000,-356.877838,-54.812740,90.024506,633
947.242188,-71.942444,-1294.963989,-11.111111,195.555557,227.500000,-300.595032,-11.900595,66.503326,634
1127.098267,-479.616272,-1151.079102,2.222222,202.222229,230.000000,-280.714050,17.430872,62.163109,635
587.529968,-383.693024,-1139.088623,8.888889,200.000000,232.500000,-254.532730,57.822891,23.801189,636
503.597107,-407.673828,-1247.002319,24.444445,200.000000,232.500000,-299.194977,142.247116,-55.722786,637
563.549133,-371.702637,-1235.011963,26.666666,182.222229,240.000000,-357.087860,184.109207,-89.114456,638
647.481995,-263.788971,-1175.059937,37.777779,184.444443,247.500000,-394.679749,260.203003,-95.624779,639
719.424438,-287.769775,-1270.983154,40.000000,164.444443,255.000000,-504.235229,338.886963,-98.844940,640
1055.155884,-407.673828,-1774.580200,60.000000,162.222229,265.000000,-635.071777,403.920197,-59.432972,641
1055.155884,-755.395630,-2074.340332,77.777779,142.222229,265.000000,-683.444153,418.340912,17.010851,642
527.577942,-695.443604,-1702.637817,97.777779,135.555557,275.000000,-535.386780,348.267426,93.524673,643
-11.990407,-743.405273,-1810.551514,126.666664,111.111115,277.500000,-432.201630,303.815186,155.967804,644
-431.654663,-479.616272,-1726.618652,142.222229,111.111115,285.000000,-304.865234,248.442429,149.737488,645
-227.817734,-383.693024,-1570.743286,146.666672,91.111115,285.000000,-221.561081,188.099411,151.767593,646
-575.539551,-215.827332,-1366.906372,157.777771,102.222221,285.000000,-168.568436,158.137909,150.017502,647
-647.481995,-71.942444,-1187.050293,162.222229,80.000000,282.500000,-148.827438,151.417572,133.356674,648
-503.597107,-191.846512,-1270.983154,171.111115,88.888885,287.500000,-133.636688,135.736786,84.634232,649
-395.683441,-179.856110,-1139.088623,175.555557,80.000000,280.000000,-122.086105,101.155060,49.072453,650
-215.827332,-263.788971,-1294.963989,180.000000,73.333336,285.000000,-90.794540,55.092754,27.301365,651
-155.875290,-191.846512,-1258.992798,177.777771,68.888885,280.000000,-49.562477,16.170809,4.200210,652
-47.961628,-71.942444,-1175.059937,182.222229,77.777779,285.000000,0.560028,-10.640532,1.890095,653
71.942444,-23.980814,-1175.059937,175.555557,68.888885,282.500000,14.350718,-18.200911,-15.680784,654
95.923256,-143.884888,-1270.983154,180.000000,84.444443,287.500000,30.941547,-29.961498,-34.231712,655
131.894485,-143.884888,-1270.983154,177.777771,73.333336,285.000000,58.662933,-45.152260,-49.492474,656
71.942444,-215.827332,-1127.098267,173.333328,84.444443,287.500000,72.733635,-52.152607,-55.232761,657
287.769775,-143.884888,-1175.059937,166.666672,77.777779,285.000000,100.875046,-56.212811,-68.673431,658
335.731415,-119.904068,-1414.868042,160.000000,93.333336,287.500000,115.785789,-48.582428,-68.463425,659
155.875290,-47.961628,-1235.011963,153.333328,84.444443,285.000000,125.796288,-54.532726,-59.362968,660
527.577942,-191.846512,-1127.098267,146.666672,100.000000,292.500000,147.567383,-71.123558,-73.783691,661
455.635468,-215.827332,-1270.983154,142.222229,91.111115,282.500000,141.197067,-72.173607,-52.082603,662
0.000000,-143.884888,-1223.021484,135.555557,104.444443,287.500000,107.175362,-62.793140,-41.022053,663
23.980814,-167.865707,-1223.021484,128.888885,93.333336,285.000000,88.484428,-58.312916,-50.472523,664
47.961628,-167.865707,-1079.136597,126.666664,104.444443,292.500000,70.843544,-53.132656,-55.302765,665
119.904068,-179.856110,-1067.146240,124.444443,108.888885,290.000000,52.432621,-43.332169,-42.422123,666
119.904068,-119.904068,-1007.194214,124.444443,113.333336,287.500000,8.820441,-26.531326,-31.851593,667
155.875290,-95.923256,-863.309326,122.222221,102.222221,285.000000,-32.061604,-6.720336,-11.130557,668
215.827332,-119.904068,-695.443604,128.888885,113.333336,285.000000,-55.792789,10.990550,1.750087,669
215.827332,-131.894485,-743.405273,122.222221,100.000000,287.500000,-59.152958,21.281065,8.050403,670
239.808136,-95.923256,-815.347656,133.333328,111.111115,285.000000,-53.622681,19.670984,11.830591,671
227.817734,-59.952034,-707.434021,128.888885,100.000000,285.000000,-43.262165,6.650332,13.090654,672
191.846512,0.000000,-527.577942,135.555557,102.222221,285.000000,-31.781590,-4.760238,11.900595,673
131.894485,11.990407,-551.558716,131.111115,95.555557,282.500000,-18.550928,-3.850193,4.830242,674
23.980814,0.000000,-551.558716,137.777771,111.111115,290.000000,-10.920547,-2.100105,-10.220511,675
0.000000,0.000000,-563.549133,126.666664,97.777779,285.000000,-7.980399,3.710186,-15.890795,676
-47.961628,23.980814,-671.462830,133.333328,113.333336,287.500000,-7.980399,12.320616,-24.361217,677
-47.961628,23.980814,-647.481995,126.666664,97.777779,285.000000,-9.590480,21.491076,-31.221561,678
-143.884888,23.980814,-647.481995,133.333328,111.111115,290.000000,-12.740637,30.031502,-38.921947,679
-131.894485,35.971222,-659.472412,128.888885,104.444443,287.500000,-18.130907,37.521877,-47.742386,680
-191.846512,-47.961628,-695.443604,131.111115,104.444443,287.500000,-17.080854,45.712288,-57.752888,681
-155.875290,-23.980814,-755.395630,124.444443,97.777779,290.000000,-9.660483,49.142456,-69.373466,682
-23.980814,-23.980814,-983.213379,124.444443,104.444443,292.500000,-0.980049,50.822540,-76.653831,683
11.990407,-95.923256,-1055.155884,122.222221,93.333336,290.000000,3.990200,49.912495,-81.834091,684
167.865707,-47.961628,-1079.136597,124.444443,108.888885,295.000000,5.110256,46.132309,-80.574028,685
191.846512,-131.894485,-1151.079102,115.555557,93.333336,295.000000,7.560378,41.722088,-74.133705,686
263.788971,-167.865707,-1247.002319,120.000000,104.444443,295.000000,3.430171,32.761639,-63.423172,687
551.558716,-191.846512,-1294.963989,115.555557,97.777779,297.500000,12.110605,21.491076,-60.693035,688
767.386047,-215.827332,-1366.906372,113.333336,104.444443,295.000000,19.460974,20.791040,-49.002449,689
599.520386,-167.865707,-1223.021484,108.888885,91.111115,297.500000,17.780890,4.200210,-28.911446,690
407.673828,-95.923256,-1055.155884,111.111115,106.666664,300.000000,19.740988,-0.840042,-23.871193,691
407.673828,-143.884888,-1055.155884,106.666664,93.333336,300.000000,27.441372,-0.490025,-25.551277,692
479.616272,-167.865707,-959.232544,108.888885,104.444443,302.500000,32.621632,-7.350368,-12.390619,693
-563.549133,695.443604,155.875290,102.222221,93.333336,300.000000,30.871544,-11.060554,-0.210010,694
191.846512,-479.616272,-1294.963989,108.888885,100.000000,300.000000,-52.782639,87.364372,-20.091005,695
47.961628,-215.827332,-947.242188,108.888885,97.777779,300.000000,-17.010851,81.904099,-27.651382,696
-239.808136,0.000000,-551.558716,104.444443,100.000000,307.500000,1.260063,22.541128,-25.131256,697
-83.932854,-119.904068,-635.491577,100.000000,88.888885,305.000000,10.710536,41.232063,-39.901997,698
23.980814,-143.884888,-887.290100,104.444443,102.222221,307.500000,3.010150,41.162060,-31.431572,699
0.000000,-179.856110,-923.261353,102.222221,86.666664,302.500000,5.670284,16.940847,-23.171160,700
0.000000,-167.865707,-1079.136597,102.222221,97.777779,305.000000,1.890095,-8.120406,-18.340918,701
71.942444,-167.865707,-1235.011963,102.222221,86.666664,300.000000,-28.701435,-29.331467,-13.160658,702
191.846512,23.980814,-1007.194214,100.000000,93.333336,305.000000,-52.572628,-40.812042,-13.090654,703
311.750580,119.904068,-911.270935,104.444443,97.777779,300.000000,-81.554077,-49.492474,-10.780540,704
335.731415,47.961628,-911.270935,108.888885,104.444443,305.000000,-83.304169,-47.112354,-13.440672,705
335.731415,71.942444,-875.299744,108.888885,97.777779,300.000000,-80.224014,-40.882046,-12.390619,706
191.846512,0.000000,-863.309326,113.333336,108.888885,297.500000,-74.973747,-29.471474,-10.500525,707
263.788971,23.980814,-767.386047,113.333336,93.333336,297.500000,-70.073502,-17.290865,-6.300315,708
215.827332,119.904068,-575.539551,115.555557,106.666664,297.500000,-30.661533,5.530277,3.080154,709
227.817734,143.884888,-515.587524,115.555557,102.222221,297.500000,27.861393,23.591179,7.140357,710
191.846512,-23.980814,-527.577942,113.333336,104.444443,302.500000,47.182358,43.892197,-4.410221,711
119.904068,35.971222,-575.539551,106.666664,88.888885,300.000000,42.422123,46.692333,-13.860693,712
119.904068,-47.961628,-647.481995,108.888885,104.444443,307.500000,37.171860,49.562477,-17.500875,713
71.942444,-119.904068,-659.472412,104.444443,91.111115,302.500000,27.861393,43.892197,-18.970949,714
-95.923256,-191.846512,-671.462830,104.444443,102.222221,305.000000,22.051104,32.271614,-15.960798,715
-155.875290,-83.932854,-647.481995,102.222221,88.888885,302.500000,10.920547,23.801189,-17.570879,716
-191.846512,-143.884888,-599.520386,106.666664,104.444443,307.500000,-2.940147,23.101156,-21.631083,717
-179.856110,-131.894485,-635.491577,102.222221,95.555557,307.500000,-4.620231,18.970949,-23.521175,718
-143.884888,-167.865707,-671.462830,104.444443,100.000000,307.500000,-1.540077,8.470424,-20.231012,719
-119.904068,-179.856110,-695.443604,102.222221,86.666664,302.500000,6.090304,-2.870144,-21.001051,720
-167.865707,-143.884888,-839.328491,102.222221,102.222221,312.500000,14.770739,-13.790689,-24.081203,721
-23.980814,-131.894485,-875.299744,100.000000,88.888885,305.000000,15.820791,-20.091005,-24.991249,722
179.856110,-131.894485,-1079.136597,97.777779,100.000000,307.500000,10.290515,-34.231712,-20.091005,723
263.788971,-131.894485,-1115.107910,93.333336,91.111115,307.500000,-10.150508,-52.152607,-7.560378,724
431.654663,23.980814,-1103.117432,97.777779,100.000000,305.000000,-29.751488,-58.942947,5.810291,725
479.616272,-71.942444,-899.280518,100.000000,102.222221,302.500000,-44.312218,-62.303116,3.780189,726
455.635468,-23.980814,-959.232544,104.444443,111.111115,302.500000,-3.150157,-46.062305,15.120756,727
407.673828,95.923256,-971.222961,97.777779,100.000000,300.000000,23.941196,-33.671684,13.160658,728
287.769775,0.000000,-1199.040771,100.000000,113.333336,300.000000,39.131958,-20.301016,13.440672,729
359.712219,83.932854,-1175.059937,97.777779,97.777779,297.500000,12.460623,-27.021351,13.860693,730
287.769775,167.865707,-935.251770,100.000000,108.888885,297.500000,-8.330417,-28.841442,14.490725,731
215.827332,119.904068,-767.386047,97.777779,100.000000,297.500000,-37.661884,-18.130907,13.510675,732
23.980814,47.961628,-815.347656,102.222221,104.444443,297.500000,-19.180960,14.980749,9.870494,733
23.980814,23.980814,-791.366882,100.000000,100.000000,297.500000,-16.660833,37.311867,2.310116,734
-23.980814,0.000000,-623.501160,102.222221,111.111115,302.500000,-18.760939,46.902344,-8.540427,735
-23.980814,0.000000,-659.472412,100.000000,93.333336,300.000000,-14.350718,50.962547,-15.890795,736
-23.980814,0.000000,-719.424438,102.222221,108.888885,305.000000,-13.650682,50.682533,-22.611132,737
11.990407,-83.932854,-743.405273,100.000000,91.111115,302.500000,-17.850893,49.352467,-27.791389,738
95.923256,-47.961628,-791.366882,104.444443,104.444443,307.500000,-21.981100,45.922298,-28.841442,739
119.904068,-107.913666,-791.366882,100.000000,93.333336,302.500000,-22.331118,43.192162,-28.001400,740
119.904068,-191.846512,-863.309326,104.444443,93.333336,307.500000,-21.001051,34.301716,-25.691284,741
191.846512,-167.865707,-875.299744,97.777779,88.888885,302.500000,-17.290865,21.211061,-19.530977,742
239.808136,-119.904068,-887.290100,102.222221,97.777779,307.500000,-8.540427,2.590130,-10.710536,743
347.721802,0.000000,-863.309326,100.000000,88.888885,307.500000,-2.240112,-15.470774,1.330067,744
359.712219,-71.942444,-863.309326,104.444443,100.000000,307.500000,-2.660133,-27.441372,17.500875,745
275.779358,-47.961628,-863.309326,100.000000,91.111115,302.500000,8.540427,-35.771790,26.181309,746
191.846512,-47.961628,-911.270935,100.000000,104.444443,307.500000,24.011200,-34.931747,30.451523,747
203.836914,-11.990407,-959.232544,100.000000,97.777779,305.000000,27.931396,-29.611481,31.081554,748
167.865707,47.961628,-1031.175049,100.000000,104.444443,302.500000,13.440672,-24.221210,21.491076,749
179.856110,107.913666,-1031.175049,95.555557,91.111115,302.500000,-1.330067,-13.230661,12.530626,750
167.865707,47.961628,-1031.175049,102.222221,102.222221,305.000000,-22.331118,2.730137,7.560378,751
179.856110,11.990407,-983.213379,102.222221,93.333336,302.500000,-36.891846,17.920897,5.950297,752
23.980814,119.904068,-959.232544,102.222221,104.444443,302.500000,-44.662235,28.071404,3.430171,753
227.817734,-47.961628,-899.280518,102.222221,86.666664,300.000000,-57.332867,30.591530,0.350018,754
191.846512,-71.942444,-935.251770,104.444443,97.777779,305.000000,-56.002800,27.791389,0.700035,755
59.952034,95.923256,-899.280518,108.888885,95.555557,302.500000,-60.413021,25.271263,15.820791,756
23.980814,167.865707,-1270.983154,115.555557,97.777779,300.000000,-105.075256,22.611132,38.151909,757
11.990407,-251.798553,-935.251770,111.111115,82.222221,300.000000,-174.168716,-10.360518,-18.690935,758
23.980814,-71.942444,-695.443604,124.444443,97.777779,300.000000,-174.098709,-10.640532,-20.581030,759
95.923256,-35.971222,-779.376465,124.444443,88.888885,297.500000,-131.466568,-14.280714,-14.070704,760
-527.577942,1558.752930,-551.558716,128.888885,100.000000,300.000000,-102.415123,-25.061253,2.100105,761
-119.904068,179.856110,-815.347656,135.555557,88.888885,292.500000,-146.517334,-30.661533,47.812389,762
191.846512,-215.827332,-983.213379,137.777771,95.555557,292.500000,-142.947144,-51.102554,30.311516,763
227.817734,-167.865707,-899.280518,142.222229,91.111115,285.000000,-109.135460,-31.361568,3.710186,764
47.961628,575.539551,-599.520386,151.111115,106.666664,287.500000,-108.295418,-29.191460,-2.940147,765
23.980814,47.961628,-731.414856,148.888885,91.111115,280.000000,-162.128113,-27.511375,30.591530,766
-119.904068,-791.366882,-599.520386,155.555557,104.444443,282.500000,-182.499130,-42.772141,40.532028,767
155.875290,-419.664246,-671.462830,160.000000,91.111115,277.500000,-177.528885,-50.542526,12.180609,768
-23.980814,0.000000,-599.520386,164.444443,108.888885,275.000000,-119.145958,-52.082603,-21.631083,769
-35.971222,47.961628,-695.443604,166.666672,104.444443,272.500000,-83.584183,-44.942249,-8.120406,770
-263.788971,95.923256,-743.405273,164.444443,104.444443,272.500000,-88.204414,-28.071404,-5.040252,771
-251.798553,143.884888,-575.539551,166.666672,100.000000,267.500000,-79.873993,-12.320616,-8.120406,772
-23.980814,23.980814,-959.232544,175.555557,111.111115,275.000000,-41.512077,-5.390270,11.130557,773
-71.942444,47.961628,-1007.194214,171.111115,100.000000,265.000000,-33.811691,3.570179,30.871544,774
-191.846512,239.808136,-1031.175049,173.333328,108.888885,267.500000,-21.981100,20.091005,41.512077,775
-11.990407,-71.942444,-1175.059937,173.333328,97.777779,262.500000,-1.120056,27.091354,47.392368,776
23.980814,-119.904068,-1175.059937,177.777771,111.111115,267.500000,18.060904,28.211411,53.412670,777
59.952034,-167.865707,-1067.146240,177.777771,97.777779,267.500000,37.101856,31.011551,35.141758,778
47.961628,-119.904068,-1031.175049,173.333328,102.222221,272.500000,50.402519,14.000700,33.671684,779
35.971222,-119.904068,-1031.175049,173.333328,95.555557,272.500000,65.943298,-3.290164,33.741688,780
47.961628,-191.846512,-1079.136597,171.111115,104.444443,272.500000,71.053551,-17.570879,28.771439,781
59.952034,-83.932854,-1091.127075,168.888885,93.333336,272.500000,58.032902,-24.851242,17.570879,782
0.000000,0.000000,-1199.040771,171.111115,108.888885,272.500000,41.862095,-28.841442,7.210361,783
119.904068,-95.923256,-875.299744,166.666672,95.555557,275.000000,24.851242,-43.542179,-4.690235,784
119.904068,-23.980814,-887.290100,164.444443,100.000000,272.500000,25.761288,-78.193909,-7.770389,785
59.952034,-11.990407,-899.280518,168.888885,104.444443,272.500000,19.180960,-76.023804,-9.940497,786
-23.980814,23.980814,-1031.175049,166.666672,113.333336,272.500000,14.700735,-65.593277,-9.310466,787
11.990407,-23.980814,-971.222961,162.222229,100.000000,267.500000,11.060554,-45.082256,-13.020651,788
-71.942444,-119.904068,-959.232544,162.222229,120.000000,267.500000,8.960448,-23.801189,-16.100805,789
155.875290,-359.712219,-695.443604,162.222229,102.222221,267.500000,-6.370318,-8.680434,-22.891146,790
107.913666,23.980814,-971.222961,164.444443,115.555557,267.500000,-31.501575,1.610080,-34.791740,791
0.000000,-59.952034,-815.347656,162.222229,102.222221,267.500000,-34.861744,17.360868,-25.061253,792
23.980814,-71.942444,-959.232544,162.222229,111.111115,270.000000,-28.911446,25.481274,-17.710886,793
11.990407,-83.932854,-911.270935,164.444443,102.222221,265.000000,-13.720686,31.081554,-9.240462,794
71.942444,-119.904068,-911.270935,164.444443,113.333336,270.000000,-1.050053,25.551277,-5.390270,795
59.952034,-95.923256,-899.280518,162.222229,102.222221,270.000000,1.120056,19.950998,-5.880294,796
71.942444,-143.884888,-959.232544,164.444443,115.555557,272.500000,1.470073,5.670284,-8.120406,797
83.932854,-119.904068,-995.203796,155.555557,100.000000,267.500000,2.310116,-4.340217,-12.040602,798
95.923256,-119.904068,-959.232544,162.222229,113.333336,272.500000,7.000350,-9.660483,-13.720686,799
119.904068,-107.913666,-971.222961,160.000000,108.888885,272.500000,15.050753,-12.530626,-13.930696,800
119.904068,-119.904068,-1055.155884,160.000000,111.111115,272.500000,23.031153,-12.950647,-14.840742,801
155.875290,-71.942444,-1019.184631,155.555557,104.444443,272.500000,31.011551,-14.630732,-16.590830,802
143.884888,-71.942444,-887.290100,157.777771,113.333336,270.000000,35.071754,-16.240812,-22.191111,803
143.884888,-119.904068,-899.280518,148.888885,102.222221,270.000000,37.171860,-18.200911,-25.971298,804
143.884888,-167.865707,-863.309326,151.111115,117.777779,272.500000,39.131958,-19.460974,-27.091354,805
71.942444,-143.884888,-851.318909,144.444443,104.444443,275.000000,44.592232,-18.760939,-26.881344,806
47.961628,-71.942444,-887.290100,144.444443,120.000000,272.500000,50.822540,-12.530626,-28.841442,807
-11.990407,-59.952034,-875.299744,140.000000,113.333336,272.500000,55.092754,-3.850193,-25.901295,808
-119.904068,-95.923256,-815.347656,140.000000,122.222221,272.500000,55.582779,3.710186,-18.900946,809
-107.913666,-59.952034,-803.357300,135.555557,111.111115,275.000000,49.072453,10.500525,-13.860693,810
-167.865707,-71.942444,-815.347656,140.000000,122.222221,275.000000,35.281765,14.840742,-9.940497,811
-143.884888,-47.961628,-743.405273,135.555557,108.888885,272.500000,10.850543,12.670633,-16.030802,812
-191.846512,-47.961628,-791.366882,135.555557,120.000000,277.500000,-6.020301,15.680784,-3.990200,813
-179.856110,-23.980814,-791.366882,131.111115,108.888885,275.000000,-8.540427,15.610781,5.460273,814
-119.904068,-71.942444,-863.309326,131.111115,115.555557,275.000000,-14.770739,6.930346,7.560378,815
-59.952034,-131.894485,-875.299744,137.777771,113.333336,275.000000,-29.331467,-3.990200,11.200561,816
119.904068,-95.923256,-1055.155884,140.000000,122.222221,277.500000,-43.052155,-11.270564,10.990550,817
251.798553,-167.865707,-1187.050293,137.777771,106.666664,272.500000,-78.613930,7.770389,3.360168,818
215.827332,-143.884888,-935.251770,146.666672,120.000000,275.000000,-99.614983,16.590830,-7.980399,819
215.827332,-155.875290,-887.290100,142.222229,108.888885,272.500000,-94.924744,13.650682,-13.370668,820
191.846512,-167.865707,-791.366882,151.111115,117.777779,272.500000,-79.173958,6.160308,-12.320616,821
179.856110,-179.856110,-683.453186,146.666672,104.444443,272.500000,-47.112354,-8.610431,-9.800490,822
95.923256,-167.865707,-815.347656,151.111115,113.333336,272.500000,-15.260763,-10.360518,-4.970249,823
23.980814,-83.932854,-863.309326,142.222229,108.888885,270.000000,-3.640182,-6.090304,-2.170109,824
-107.913666,-23.980814,-923.261353,151.111115,122.222221,267.500000,15.890795,4.410221,5.600280,825
-155.875290,0.000000,-995.203796,148.888885,104.444443,272.500000,27.861393,15.680784,12.180609,826
-191.846512,23.980814,-1007.194214,146.666672,117.777779,275.000000,30.101505,23.031153,14.910746,827
-191.846512,47.961628,-995.203796,144.444443,100.000000,272.500000,23.661182,31.361568,15.260763,828
-119.904068,23.980814,-983.213379,146.666672,113.333336,277.500000,3.500175,36.261814,13.510675,829
-95.923256,11.990407,-923.261353,146.666672,108.888885,275.000000,-20.091005,36.471825,9.170459,830
-23.980814,-95.923256,-839.328491,151.111115,108.888885,277.500000,-34.721737,32.621632,4.830242,831
11.990407,-23.980814,-815.347656,148.888885,97.777779,275.000000,-42.002102,22.961149,0.910046,832
47.961628,-23.980814,-839.328491,151.111115,111.111115,280.000000,-44.522228,17.430872,-0.980049,833
131.894485,-107.913666,-791.366882,151.111115,102.222221,275.000000,-47.602379,16.590830,-4.620231,834
-47.961628,0.000000,-623.501160,153.333328,111.111115,277.500000,-42.562130,4.480224,-11.830591,835
119.904068,-59.952034,-803.357300,155.555557,97.777779,277.500000,-32.201611,-13.580679,-14.910746,836
0.000000,-47.961628,-911.270935,153.333328,115.555557,275.000000,-3.290164,-17.080854,-8.890445,837
11.990407,-59.952034,-875.299744,151.111115,108.888885,275.000000,12.250612,-10.360518,-5.040252,838
-23.980814,-47.961628,-839.328491,155.555557,111.111115,275.000000,17.430872,-5.320266,-3.570179,839
0.000000,-47.961628,-875.299744,146.666672,100.000000,272.500000,21.491076,-0.490025,-4.410221,840
23.980814,-119.904068,-911.270935,151.111115,115.555557,277.500000,23.941196,5.810291,-5.040252,841
71.942444,-83.932854,-935.251770,146.666672,97.777779,275.000000,24.361217,9.870494,-5.110256,842
167.865707,-71.942444,-959.232544,151.111115,108.888885,280.000000,25.341267,18.060904,-6.300315,843
155.875290,-71.942444,-947.242188,144.444443,100.000000,275.000000,27.651382,25.131256,-6.860343,844
95.923256,-95.923256,-911.270935,144.444443,108.888885,285.000000,27.581379,28.981449,-5.320266,845
179.856110,-119.904068,-971.222961,144.444443,102.222221,282.500000,26.251312,31.361568,-4.620231,846
119.904068,-143.884888,-983.213379,142.222229,108.888885,280.000000,21.491076,32.131607,-4.270214,847
131.894485,-119.904068,-923.261353,137.777771,88.888885,282.500000,19.320967,31.011551,-3.710186,848
71.942444,-95.923256,-887.290100,144.444443,106.666664,287.500000,21.421072,28.281414,-1.190060,849
11.990407,-23.980814,-767.386047,137.777771,95.555557,285.000000,18.340918,10.010501,0.560028,850
-23.980814,-47.961628,-863.309326,140.000000,104.444443,287.500000,21.561079,9.520476,2.590130,851
-71.942444,-11.990407,-719.424438,140.000000,95.555557,287.500000,20.091005,-1.050053,4.480224,852
-71.942444,0.000000,-767.386047,137.777771,100.000000,287.500000,10.360518,-16.800840,7.000350,853
-47.961628,23.980814,-731.414856,135.555557,91.111115,285.000000,8.260413,-21.491076,8.890445,854
-23.980814,47.961628,-647.481995,137.777771,102.222221,287.500000,10.920547,-24.361217,11.760588,855
-47.961628,11.990407,-671.462830,135.555557,95.555557,282.500000,15.050753,-24.501225,13.160658,856
-23.980814,0.000000,-671.462830,140.000000,108.888885,285.000000,18.620932,-24.501225,14.070704,857
0.000000,23.980814,-683.453186,135.555557,93.333336,282.500000,17.990900,-24.081203,12.810640,858
-95.923256,-71.942444,-719.424438,137.777771,111.111115,285.000000,17.010851,-19.880995,10.430522,859
-119.904068,71.942444,-599.520386,137.777771,102.222221,285.000000,18.550928,-16.800840,10.080504,860
-131.894485,71.942444,-647.481995,135.555557,104.444443,282.500000,19.460974,-6.370318,12.880644,861
-131.894485,35.971222,-623.501160,131.111115,95.555557,282.500000,20.581030,5.530277,17.220861,862
-167.865707,119.904068,-599.520386,135.555557,104.444443,285.000000,22.471125,17.010851,20.861044,863
-143.884888,23.980814,-551.558716,133.333328,93.333336,285.000000,19.950998,28.281414,24.221210,864
-119.904068,-71.942444,-479.616272,135.555557,104.444443,287.500000,7.980399,37.241863,26.461323,865
-119.904068,-83.932854,-515.587524,135.555557,91.111115,285.000000,-14.140707,44.032204,21.981100,866
0.000000,-47.961628,-695.443604,133.333328,102.222221,287.500000,-35.071754,46.202312,12.670633,867
71.942444,-47.961628,-767.386047,140.000000,95.555557,290.000000,-47.392368,37.031853,5.600280,868
191.846512,-143.884888,-839.328491,140.000000,102.222221,290.000000,-48.932446,16.380819,5.950297,869
215.827332,-143.884888,-851.318909,135.555557,86.666664,287.500000,-50.472523,7.070354,6.650332,870
311.750580,-143.884888,-863.309326,142.222229,97.777779,285.000000,-51.242561,-2.380119,3.360168,871
299.760193,-167.865707,-887.290100,142.222229,84.444443,282.500000,-47.322365,-3.500175,-0.840042,872
215.827332,-95.923256,-887.290100,144.444443,97.777779,282.500000,-40.392021,-2.240112,-2.170109,873
215.827332,-95.923256,-851.318909,140.000000,86.666664,282.500000,-32.761639,2.380119,-4.970249,874
119.904068,-71.942444,-743.405273,144.444443,91.111115,287.500000,-29.681484,5.600280,-6.090304,875
119.904068,-59.952034,-731.414856,146.666672,97.777779,282.500000,-25.411270,6.650332,-6.300315,876
71.942444,-47.961628,-743.405273,146.666672,100.000000,285.000000,-22.961149,3.570179,-3.850193,877
83.932854,-47.961628,-683.453186,142.222229,84.444443,280.000000,-20.581030,3.220161,-3.710186,878
-23.980814,0.000000,-575.539551,148.888885,91.111115,285.000000,-18.970949,6.160308,-5.250263,879
11.990407,-11.990407,-599.520386,142.222229,86.666664,282.500000,-15.750788,10.780540,-4.830242,880
-47.961628,23.980814,-527.577942,148.888885,93.333336,285.000000,-12.950647,11.830591,-5.250263,881
-23.980814,11.990407,-503.597107,144.444443,80.000000,280.000000,-10.220511,9.030452,-5.880294,882
71.942444,0.000000,-479.616272,144.444443,91.111115,282.500000,-12.880644,4.970249,-4.830242,883
-59.952034,-11.990407,-431.654663,144.444443,84.444443,277.500000,-24.011200,-0.770038,-4.970249,884
-167.865707,-23.980814,-359.712219,146.666672,93.333336,285.000000,-34.651733,-3.710186,-6.370318,885
-167.865707,11.990407,-383.693024,144.444443,77.777779,277.500000,-41.722088,-3.920196,-3.500175,886
-191.846512,71.942444,-479.616272,151.111115,88.888885,277.500000,-46.902344,-8.960448,2.450123,887
-107.913666,0.000000,-527.577942,146.666672,80.000000,272.500000,-49.142456,-13.790689,3.710186,888
-71.942444,-47.961628,-551.558716,151.111115,95.555557,275.000000,-52.992649,-24.081203,5.110256,889
-11.990407,-47.961628,-611.510742,153.333328,91.111115,270.000000,-56.142807,-32.901646,4.270214,890
71.942444,-119.904068,-767.386047,153.333328,88.888885,270.000000,-58.942947,-34.721737,-0.910046,891
47.961628,-83.932854,-755.395630,155.555557,80.000000,265.000000,-61.463074,-33.041653,-6.160308,892
95.923256,-47.961628,-791.366882,160.000000,97.777779,265.000000,-59.222961,-30.731537,-7.630382,893
83.932854,-35.971222,-887.290100,157.777771,86.666664,257.500000,-55.092754,-25.691284,-9.940497,894
179.856110,-11.990407,-923.261353,160.000000,95.555557,265.000000,-50.402519,-19.460974,-12.530626,895
167.865707,-23.980814,-959.232544,157.777771,86.666664,257.500000,-46.342319,-12.390619,-14.140707,896
215.827332,-47.961628,-935.251770,160.000000,97.777779,255.000000,-40.042004,-7.490375,-17.010851,897
251.798553,-83.932854,-995.203796,160.000000,88.888885,255.000000,-36.261814,7.210361,-17.850893,898
191.846512,-95.923256,-1103.117432,162.222229,97.777779,260.000000,-34.581730,18.620932,-20.021002,899
215.827332,-71.942444,-1067.146240,157.777771,84.444443,255.000000,-36.821842,27.651382,-22.611132,900
143.884888,0.000000,-1079.136597,162.222229,93.333336,255.000000,-35.141758,35.141758,-25.411270,901
107.913666,-11.990407,-1091.127075,157.777771,84.444443,255.000000,-31.711586,25.971298,-24.641232,902
23.980814,-47.961628,-1079.136597,160.000000,93.333336,255.000000,-28.701435,10.150508,-20.231012,903
11.990407,-47.961628,-1031.175049,160.000000,82.222221,250.000000,-25.691284,-1.470073,-15.610781,904
-23.980814,-71.942444,-983.213379,162.222229,84.444443,255.000000,-22.821142,-5.810291,-12.320616,905
-23.980814,-47.961628,-1007.194214,157.777771,88.888885,252.500000,-25.761288,-6.720336,-10.500525,906
-71.942444,-23.980814,-911.270935,162.222229,95.555557,247.500000,-28.421421,-6.790339,-9.660483,907
-131.894485,-35.971222,-959.232544,160.000000,77.777779,242.500000,-33.601681,-4.620231,-7.000350,908
-71.942444,-23.980814,-959.232544,164.444443,88.888885,245.000000,-37.101856,-0.210010,-3.150157,909
-119.904068,-47.961628,-947.242188,160.000000,84.444443,250.000000,-38.291916,7.980399,0.770038,910
-47.961628,23.980814,-959.232544,168.888885,88.888885,245.000000,-39.341969,13.510675,2.590130,911
-59.952034,11.990407,-947.242188,164.444443,75.555557,240.000000,-40.392021,20.021002,3.780189,912
-23.980814,0.000000,-887.290100,164.444443,84.444443,242.500000,-41.092056,28.141407,1.400070,913
-47.961628,23.980814,-911.270935,164.444443,77.777779,242.500000,-39.411972,35.771790,-1.190060,914
0.000000,23.980814,-983.213379,168.888885,86.666664,242.500000,-34.791740,43.262165,-1.960098,915
95.923256,23.980814,-1019.184631,168.888885,73.333336,242.500000,-30.311516,47.182358,-1.890095,916
167.865707,-47.961628,-1151.079102,166.666672,84.444443,240.000000,-15.750788,55.582779,-1.190060,917
179.856110,-35.971222,-1091.127075,162.222229,66.666664,240.000000,0.070004,60.063004,-0.490025,918
143.884888,-47.961628,-1247.002319,166.666672,77.777779,247.500000,8.680434,60.763039,-4.340217,919
155.875290,-35.971222,-1235.011963,164.444443,73.333336,240.000000,11.830591,47.042351,-8.260413,920
71.942444,0.000000,-1247.002319,160.000000,73.333336,247.500000,16.310816,15.890795,-8.400420,921
47.961628,0.000000,-1211.031128,157.777771,66.666664,240.000000,23.591179,-15.820791,-5.320266,922
-143.884888,-47.961628,-1127.098267,162.222229,75.555557,247.500000,26.741337,-35.491776,-4.550228,923
-179.856110,-11.990407,-1067.146240,157.777771,66.666664,240.000000,22.611132,-46.902344,-6.860343,924
-359.712219,0.000000,-863.309326,160.000000,84.444443,242.500000,17.780890,-52.432621,-7.490375,925
-515.587524,23.980814,-707.434021,157.777771,71.111115,235.000000,0.770038,-60.903046,-6.930346,926
-815.347656,95.923256,-479.616272,155.555557,82.222221,240.000000,-23.381168,-64.403221,-7.210361,927
-815.347656,47.961628,1654.676147,157.777771,80.000000,237.500000,-49.772488,-64.683235,-7.210361,928
-659.472412,263.788971,23.980814,157.777771,91.111115,235.000000,39.061954,-110.115509,59.222961,929
-875.299744,227.817734,-587.529968,155.555557,77.777779,230.000000,56.282814,-89.674484,61.393070,930
143.884888,-47.961628,-1510.791260,160.000000,91.111115,227.500000,-3.430171,-35.771790,65.313263,931
1031.175049,-311.750580,-2685.851318,160.000000,77.777779,225.000000,-44.452225,56.422821,35.841793,932
1294.963989,-239.808136,-5491.606445,160.000000,84.444443,232.500000,248.162415,128.036407,77.703888,933
503.597107,-383.693024,-4772.182129,144.444443,68.888885,237.500000,342.947144,116.485825,46.902344,934
-119.904068,-215.827332,-1103.117432,144.444443,75.555557,245.000000,123.206161,-12.530626,11.060554,935
-143.884888,-155.875290,-1031.175049,142.222229,75.555557,237.500000,54.532726,-5.530277,-15.050753,936
-167.865707,-167.865707,-887.290100,142.222229,84.444443,245.000000,30.941547,1.750087,5.460273,937
-407.673828,-155.875290,-671.462830,137.777771,73.333336,237.500000,26.321316,-4.130207,10.710536,938
71.942444,-71.942444,-863.309326,137.777771,84.444443,240.000000,33.951698,-3.080154,24.011200,939
107.913666,-59.952034,-863.309326,137.777771,66.666664,245.000000,14.210711,5.250263,8.960448,940
143.884888,-143.884888,-887.290100,142.222229,80.000000,242.500000,17.220861,2.590130,3.570179,941
47.961628,-83.932854,-863.309326,137.777771,68.888885,240.000000,20.511026,1.820091,-5.250263,942
-191.846512,-119.904068,-983.213379,140.000000,77.777779,242.500000,13.090654,-1.610080,-8.960448,943
11.990407,-23.980814,-911.270935,135.555557,68.888885,245.000000,11.900595,-1.400070,-11.480575,944
-71.942444,0.000000,-935.251770,135.555557,82.222221,247.500000,4.970249,-3.080154,-12.460623,945
-59.952034,-11.990407,-911.270935,131.111115,68.888885,240.000000,-0.350018,-1.820091,-11.270564,946
-95.923256,-23.980814,-911.270935,137.777771,82.222221,242.500000,-3.150157,-2.170109,-8.890445,947
0.000000,-35.971222,-923.261353,135.555557,68.888885,240.000000,-6.300315,-2.520126,-6.160308,948
95.923256,-23.980814,-1007.194214,137.777771,84.444443,247.500000,-7.770389,-2.450123,-4.270214,949
59.952034,0.000000,-923.261353,135.555557,77.777779,245.000000,-6.090304,-2.590130,-3.570179,950
47.961628,-23.980814,-935.251770,137.777771,77.777779,245.000000,-4.480224,-1.680084,-3.640182,951
0.000000,-23.980814,-899.280518,128.888885,73.333336,242.500000,-4.760238,-1.400070,-2.590130,952
95.923256,-47.961628,-911.270935,137.777771,84.444443,247.500000,-5.530277,-1.050053,-1.330067,953
47.961628,-23.980814,-899.280518,133.333328,73.333336,242.500000,-6.930346,-0.140007,-0.210010,954
47.961628,-23.980814,-983.213379,135.555557,84.444443,245.000000,-9.800490,-0.770038,0.770038,955
59.952034,-35.971222,-947.242188,133.333328,66.666664,240.000000,-12.600630,-0.770038,0.070004,956
23.980814,0.000000,-935.251770,133.333328,82.222221,245.000000,-14.000700,-0.140007,0.560028,957
83.932854,-23.980814,-863.309326,135.555557,77.777779,247.500000,-15.260763,-1.330067,-1.540077,958
71.942444,-47.961628,-887.290100,135.555557,84.444443,245.000000,-15.610781,-1.890095,0.000000,959
23.980814,23.980814,-851.318909,135.555557,73.333336,240.000000,-16.520826,-1.820091,-2.310116,960
23.980814,-47.961628,-863.309326,137.777771,84.444443,242.500000,-13.160658,-0.770038,1.330067,961
11.990407,-35.971222,-911.270935,133.333328,75.555557,240.000000,-18.130907,-2.590130,-0.560028,962
35.971222,11.990407,-911.270935,137.777771,82.222221,240.000000,-14.560728,-0.700035,0.910046,963
47.961628,-11.990407,-959.232544,133.333328,73.333336,242.500000,-18.410921,-2.450123,0.000000,964
23.980814,-47.961628,-959.232544,135.555557,75.555557,245.000000,-12.880644,-0.560028,-0.140007,965
35.971222,-11.990407,-887.290100,135.555557,75.555557,240.000000,-15.400770,-1.960098,-2.310116,966
71.942444,-167.865707,-743.405273,137.777771,82.222221,245.000000,-11.480575,-0.560028,-1.400070,967
35.971222,0.000000,-875.299744,133.333328,68.888885,240.000000,-16.310816,-2.170109,-2.660133,968
23.980814,0.000000,-839.328491,137.777771,86.666664,240.000000,-12.530626,-0.630032,0.350018,969
131.894485,11.990407,-935.251770,133.333328,68.888885,242.500000,-22.331118,-4.410221,1.330067,970
23.980814,-71.942444,-887.290100,140.000000,86.666664,240.000000,-13.090654,-2.240112,0.630032,971
35.971222,-47.961628,-875.299744,140.000000,73.333336,237.500000,-12.600630,-1.960098,0.840042,972
23.980814,0.000000,-911.270935,135.555557,80.000000,242.500000,-15.260763,-3.010150,1.400070,973
23.980814,-47.961628,-947.242188,137.777771,73.333336,240.000000,-10.920547,-0.910046,0.700035,974
0.000000,0.000000,-887.290100,142.222229,82.222221,245.000000,-10.640532,-0.700035,-0.140007,975
23.980814,-47.961628,-863.309326,137.777771,71.111115,240.000000,-10.430522,-1.120056,-0.140007,976
23.980814,-23.980814,-887.290100,140.000000,84.444443,245.000000,-10.920547,-0.630032,-1.890095,977
23.980814,-11.990407,-875.299744,137.777771,73.333336,240.000000,-12.390619,-0.910046,-1.750087,978
-167.865707,-95.923256,-1103.117432,140.000000,84.444443,237.500000,-19.600981,-2.590130,-2.380119,979
-23.980814,-35.971222,-923.261353,137.777771,80.000000,237.500000,-14.840742,-1.540077,-1.400070,980
23.980814,-23.980814,-959.232544,140.000000,77.777779,240.000000,-14.770739,-1.400070,-1.400070,981
23.980814,23.980814,-1067.146240,137.777771,75.555557,237.500000,-15.400770,-1.470073,-3.850193,982
95.923256,-23.980814,-935.251770,140.000000,84.444443,240.000000,-23.101156,-3.360168,-9.030452,983
47.961628,-35.971222,-899.280518,140.000000,68.888885,240.000000,-14.210711,-0.910046,-5.600280,984
23.980814,0.000000,-887.290100,142.222229,86.666664,240.000000,-14.630732,-1.820091,-6.300315,985
0.000000,-71.942444,-899.280518,137.777771,75.555557,240.000000,-18.410921,-1.680084,-6.230311,986
71.942444,0.000000,-911.270935,137.777771,84.444443,242.500000,-12.320616,0.140007,-3.640182,987
59.952034,-11.990407,-875.299744,140.000000,82.222221,237.500000,-9.520476,0.560028,-1.610080,988
23.980814,-71.942444,-839.328491,144.444443,84.444443,242.500000,-8.540427,0.420021,-0.630032,989
47.961628,-23.980814,-851.318909,137.777771,71.111115,240.000000,-8.050403,0.350018,-1.330067,990
23.980814,0.000000,-887.290100,137.777771,80.000000,240.000000,-7.070354,0.280014,-0.210010,991
47.961628,-35.971222,-899.280518,133.333328,73.333336,237.500000,-6.860343,0.210010,0.350018,992
0.000000,0.000000,-887.290100,144.444443,84.444443,240.000000,-9.380469,-0.210010,1.120056,993
47.961628,-11.990407,-863.309326,137.777771,73.333336,237.500000,-9.240462,0.140007,0.630032,994
71.942444,-47.961628,-887.290100,140.000000,75.555557,240.000000,-12.530626,-0.140007,0.770038,995
71.942444,-35.971222,-959.232544,140.000000,80.000000,242.500000,-21.701086,-0.490025,3.640182,996
95.923256,-35.971222,-863.309326,140.000000,88.888885,240.000000,-18.060904,-0.280014,1.050053,997
35.971222,-59.952034,-911.270935,135.555557,71.111115,240.000000,-19.040953,-0.910046,1.820091,998
383.693024,-119.904068,-719.424438,144.444443,84.444443,240.000000,-17.710886,-0.630032,0.980049,999
179.856110,-71.942444,-923.261353,142.222229,73.333336,240.000000,-41.092056,-4.620231,0.210010,1000
47.961628,-71.942444,-839.328491,140.000000,86.666664,245.000000,-12.390619,0.000000,0.490025,1001
-23.980814,-35.971222,-875.299744,144.444443,73.333336,237.500000,-12.600630,-0.280014,-1.120056,1002
47.961628,-95.923256,-935.251770,144.444443,80.000000,237.500000,-15.470774,-1.610080,-0.070004,1003
23.980814,-59.952034,-911.270935,140.000000,75.555557,237.500000,-9.730487,-0.700035,-0.980049,1004
0.000000,-47.961628,-911.270935,146.666672,86.666664,240.000000,-7.560378,-0.280014,-1.260063,1005
143.884888,-23.980814,-851.318909,137.777771,75.555557,235.000000,-8.260413,-0.420021,-0.630032,1006
71.942444,0.000000,-935.251770,144.444443,86.666664,237.500000,-10.570529,-0.840042,0.350018,1007
35.971222,-11.990407,-875.299744,144.444443,75.555557,235.000000,-5.530277,0.350018,0.070004,1008
71.942444,-47.961628,-911.270935,144.444443,88.888885,240.000000,-5.600280,0.630032,0.140007,1009
35.971222,-59.952034,-887.290100,142.222229,77.777779,237.500000,-7.350368,0.070004,0.560028,1010
23.980814,0.000000,-935.251770,144.444443,80.000000,240.000000,-7.700385,0.210010,-0.350018,1011
35.971222,-11.990407,-887.290100,140.000000,75.555557,235.000000,-8.750438,0.000000,-0.210010,1012
23.980814,0.000000,-887.290100,144.444443,86.666664,240.000000,-9.240462,0.070004,0.210010,1013
0.000000,-23.980814,-863.309326,142.222229,73.333336,237.500000,-9.940497,-0.140007,0.140007,1014
23.980814,-23.980814,-911.270935,144.444443,84.444443,237.500000,-9.660483,0.210010,0.140007,1015
35.971222,-47.961628,-911.270935,144.444443,71.111115,237.500000,-8.680434,0.420021,0.000000,1016
23.980814,-71.942444,-959.232544,146.666672,88.888885,240.000000,-7.420371,-0.210010,-0.070004,1017
23.980814,-47.961628,-899.280518,146.666672,80.000000,237.500000,-6.650332,0.420021,-0.910046,1018
47.961628,-23.980814,-887.290100,146.666672,84.444443,237.500000,-5.530277,-0.210010,-0.070004,1019
47.961628,-23.980814,-911.270935,142.222229,73.333336,240.000000,-4.620231,0.280014,-0.910046,1020
0.000000,-23.980814,-935.251770,144.444443,86.666664,237.500000,-4.900245,0.630032,-0.910046,1021
35.971222,-59.952034,-899.280518,142.222229,73.333336,235.000000,-4.900245,0.420021,-0.770038,1022
0.000000,0.000000,-911.270935,142.222229,86.666664,240.000000,-5.390270,-0.280014,-1.540077,1023
23.980814,-23.980814,-911.270935,140.000000,73.333336,237.500000,-5.040252,0.280014,-0.420021,1024
23.980814,-47.961628,-863.309326,140.000000,82.222221,237.500000,-5.180259,0.420021,-0.140007,1025
11.990407,-35.971222,-875.299744,142.222229,77.777779,237.500000,-5.530277,0.210010,-0.420021,1026
47.961628,0.000000,-863.309326,146.666672,88.888885,240.000000,-5.880294,0.140007,-0.630032,1027
35.971222,-47.961628,-899.280518,137.777771,73.333336,235.000000,-6.580329,-0.070004,-1.120056,1028
0.000000,-95.923256,-887.290100,148.888885,80.000000,240.000000,-5.390270,0.210010,-1.330067,1029
23.980814,-47.961628,-911.270935,140.000000,73.333336,237.500000,-6.650332,0.700035,-0.770038,1030
11.990407,-35.971222,-935.251770,144.444443,86.666664,237.500000,-7.420371,1.330067,-0.560028,1031
59.952034,-23.980814,-935.251770,142.222229,71.111115,237.500000,-7.700385,1.750087,0.210010,1032
23.980814,0.000000,-887.290100,144.444443,80.000000,237.500000,-7.630382,0.770038,-0.700035,1033
35.971222,-35.971222,-911.270935,142.222229,77.777779,237.500000,-7.910396,0.210010,-0.490025,1034
-23.980814,-23.980814,-911.270935,142.222229,86.666664,240.000000,-7.630382,1.190060,0.000000,1035
35.971222,0.000000,-899.280518,140.000000,75.555557,235.000000,-7.280364,1.120056,-0.210010,1036
47.961628,-47.961628,-887.290100,140.000000,84.444443,242.500000,-7.280364,0.630032,-0.280014,1037
11.990407,-35.971222,-887.290100,140.000000,73.333336,237.500000,-6.860343,0.490025,0.000000,1038
0.000000,-95.923256,-887.290100,144.444443,84.444443,240.000000,-6.370318,1.470073,0.980049,1039
23.980814,-35.971222,-875.299744,144.444443,84.444443,237.500000,-6.160308,0.560028,0.350018,1040
23.980814,-47.961628,-887.290100,140.000000,77.777779,235.000000,-5.390270,0.840042,0.210010,1041
35.971222,-35.971222,-887.290100,140.000000,75.555557,237.500000,-4.970249,0.910046,0.420021,1042
23.980814,-23.980814,-935.251770,144.444443,84.444443,240.000000,-5.110256,0.770038,0.770038,1043
0.000000,-47.961628,-887.290100,140.000000,73.333336,235.000000,-6.160308,0.280014,0.070004,1044
47.961628,-23.980814,-935.251770,142.222229,86.666664,242.500000,-6.370318,0.560028,0.280014,1045
35.971222,-35.971222,-899.280518,140.000000,68.888885,237.500000,-6.930346,0.910046,-0.490025,1046
23.980814,0.000000,-887.290100,140.000000,86.666664,242.500000,-6.930346,0.700035,0.980049,1047
35.971222,-35.971222,-923.261353,144.444443,77.777779,240.000000,-7.490375,0.630032,0.210010,1048
23.980814,-23.980814,-887.290100,140.000000,86.666664,240.000000,-6.930346,0.630032,0.000000,1049
11.990407,-23.980814,-899.280518,142.222229,73.333336,235.000000,-7.490375,0.560028,0.280014,1050
47.961628,0.000000,-887.290100,144.444443,86.666664,240.000000,-7.910396,0.280014,0.560028,1051
47.961628,-35.971222,-899.280518,140.000000,71.111115,237.500000,-7.420371,0.770038,0.630032,1052
0.000000,-71.942444,-863.309326,144.444443,84.444443,237.500000,-7.770389,0.140007,0.350018,1053
11.990407,-47.961628,-875.299744,142.222229,71.111115,235.000000,-7.770389,0.210010,0.840042,1054
23.980814,0.000000,-911.270935,142.222229,77.777779,242.500000,-7.910396,0.210010,0.420021,1055
23.980814,-35.971222,-887.290100,142.222229,80.000000,240.000000,-7.350368,-0.140007,-0.070004,1056
47.961628,-47.961628,-863.309326,142.222229,84.444443,242.500000,-7.140357,-0.140007,0.140007,1057
23.980814,-11.990407,-875.299744,142.222229,73.333336,235.000000,-7.140357,-0.070004,-1.330067,1058
23.980814,-23.980814,-887.290100,144.444443,84.444443,240.000000,-6.860343,-0.140007,0.000000,1059
23.980814,-35.971222,-863.309326,135.555557,73.333336,242.500000,-6.370318,0.210010,-0.420021,1060
47.961628,-47.961628,-935.251770,146.666672,86.666664,240.000000,-6.020301,0.350018,0.140007,1061
23.980814,-35.971222,-899.280518,142.222229,71.111115,240.000000,-5.460273,0.630032,-0.350018,1062
23.980814,0.000000,-887.290100,142.222229,80.000000,240.000000,-5.880294,1.330067,-0.700035,1063
35.971222,-59.952034,-887.290100,140.000000,71.111115,237.500000,-6.440322,0.980049,0.140007,1064
35.971222,-71.942444,-875.299744,144.444443,84.444443,240.000000,-6.790339,1.050053,-0.490025,1065
11.990407,-23.980814,-899.280518,140.000000,75.555557,237.500000,-7.140357,1.680084,0.070004,1066
0.000000,-95.923256,-935.251770,144.444443,86.666664,245.000000,-7.000350,0.910046,0.630032,1067
35.971222,-83.932854,-923.261353,140.000000,71.111115,235.000000,-7.980399,1.050053,0.140007,1068
23.980814,-71.942444,-911.270935,146.666672,86.666664,240.000000,-7.560378,0.910046,0.070004,1069
23.980814,-59.952034,-899.280518,142.222229,77.777779,232.500000,-7.210361,0.140007,0.770038,1070
47.961628,-23.980814,-911.270935,140.000000,80.000000,237.500000,-7.280364,0.070004,-0.350018,1071
23.980814,-23.980814,-875.299744,142.222229,73.333336,237.500000,-7.420371,0.210010,0.210010,1072
47.961628,-23.980814,-887.290100,144.444443,84.444443,237.500000,-7.210361,0.560028,0.770038,1073
47.961628,-35.971222,-887.290100,144.444443,75.555557,235.000000,-6.580329,0.070004,0.280014,1074
0.000000,-71.942444,-863.309326,144.444443,88.888885,240.000000,-6.790339,-0.770038,-0.070004,1075
11.990407,-59.952034,-875.299744,142.222229,73.333336,237.500000,-6.020301,0.350018,-0.630032,1076
23.980814,-95.923256,-935.251770,144.444443,80.000000,240.000000,-6.510325,-0.140007,-0.350018,1077
35.971222,-23.980814,-911.270935,142.222229,80.000000,237.500000,-6.020301,-0.280014,-0.420021,1078
-23.980814,-23.980814,-911.270935,144.444443,86.666664,240.000000,-6.020301,-0.280014,-0.490025,1079
23.980814,-35.971222,-911.270935,137.777771,73.333336,237.500000,-6.650332,-0.210010,-0.630032,1080
0.000000,-47.961628,-887.290100,144.444443,84.444443,242.500000,-6.370318,-0.070004,-1.330067,1081
23.980814,-11.990407,-875.299744,137.777771,75.555557,240.000000,-6.160308,-0.070004,-0.910046,1082
47.961628,23.980814,-911.270935,140.000000,86.666664,240.000000,-5.600280,0.420021,-1.190060,1083
11.990407,-11.990407,-899.280518,144.444443,68.888885,237.500000,-6.860343,-0.210010,-1.470073,1084
71.942444,-23.980814,-863.309326,140.000000,80.000000,240.000000,-7.350368,-0.140007,-1.050053,1085
35.971222,-47.961628,-887.290100,142.222229,82.222221,237.500000,-7.350368,0.630032,-1.540077,1086
0.000000,-47.961628,-863.309326,144.444443,86.666664,240.000000,-7.490375,0.630032,-0.420021,1087
23.980814,-23.980814,-899.280518,140.000000,73.333336,240.000000,-7.280364,0.630032,-1.050053,1088
0.000000,0.000000,-935.251770,140.000000,82.222221,237.500000,-7.630382,0.840042,-0.280014,1089
23.980814,-23.980814,-887.290100,140.000000,73.333336,237.500000,-7.140357,0.840042,-0.350018,1090
0.000000,0.000000,-887.290100,146.666672,84.444443,240.000000,-7.770389,0.840042,0.070004,1091
23.980814,-35.971222,-887.290100,144.444443,66.666664,237.500000,-7.490375,1.050053,0.000000,1092
-23.980814,-23.980814,-863.309326,140.000000,80.000000,237.500000,-7.280364,0.840042,0.000000,1093
11.990407,-35.971222,-899.280518,140.000000,73.333336,237.500000,-7.210361,0.770038,0.700035,1094
95.923256,-23.980814,-911.270935,146.666672,80.000000,240.000000,-6.370318,0.700035,-0.350018,1095
47.961628,-11.990407,-899.280518,144.444443,73.333336,237.500000,-7.000350,0.420021,0.280014,1096
47.961628,-23.980814,-863.309326,144.444443,86.666664,237.500000,-6.300315,0.700035,-0.210010,1097
47.961628,-83.932854,-887.290100,140.000000,71.111115,237.500000,-6.650332,0.420021,-0.070004,1098
23.980814,-71.942444,-911.270935,144.444443,86.666664,240.000000,-6.020301,0.350018,0.350018,1099
23.980814,-47.961628,-935.251770,142.222229,73.333336,240.000000,-5.740287,0.700035,0.000000,1100
23.980814,-23.980814,-899.280518,144.444443,80.000000,237.500000,-5.880294,0.000000,-0.140007,1101
11.990407,-11.990407,-911.270935,140.000000,73.333336,237.500000,-6.440322,-0.070004,0.000000,1102
0.000000,0.000000,-839.328491,142.222229,86.666664,240.000000,-7.350368,-0.210010,0.630032,1103
35.971222,-23.980814,-875.299744,140.000000,71.111115,237.500000,-6.230311,0.700035,0.770038,1104
23.980814,0.000000,-863.309326,144.444443,86.666664,237.500000,-6.440322,0.350018,-0.070004,1105
23.980814,-23.980814,-851.318909,140.000000,73.333336,240.000000,-7.140357,0.350018,0.000000,1106
23.980814,0.000000,-839.328491,140.000000,84.444443,237.500000,-6.790339,0.560028,-0.070004,1107
0.000000,0.000000,-863.309326,140.000000,80.000000,237.500000,-6.510325,0.210010,0.140007,1108
0.000000,0.000000,-863.309326,144.444443,84.444443,240.000000,-6.230311,0.490025,0.140007,1109
59.952034,-35.971222,-875.299744,137.777771,71.111115,235.000000,-6.090304,0.770038,-0.070004,1110
23.980814,-23.980814,-935.251770,142.222229,84.444443,240.000000,-6.160308,-0.070004,-0.280014,1111
35.971222,-35.971222,-887.290100,140.000000,73.333336,237.500000,-6.650332,0.280014,-0.280014,1112
23.980814,-23.980814,-911.270935,144.444443,86.666664,240.000000,-7.140357,0.140007,-0.280014,1113
23.980814,-47.961628,-899.280518,142.222229,73.333336,237.500000,-6.860343,-0.210010,-0.770038,1114
47.961628,0.000000,-935.251770,144.444443,80.000000,240.000000,-7.280364,-0.210010,-0.420021,1115
23.980814,0.000000,-875.299744,140.000000,80.000000,237.500000,-7.910396,-0.560028,-0.700035,1116
71.942444,-47.961628,-911.270935,144.444443,88.888885,240.000000,-7.490375,-0.630032,0.210010,1117
23.980814,0.000000,-911.270935,137.777771,71.111115,240.000000,-8.050403,-0.420021,0.070004,1118
0.000000,-23.980814,-911.270935,144.444443,86.666664,240.000000,-7.630382,-0.350018,-1.120056,1119
11.990407,-23.980814,-911.270935,140.000000,73.333336,240.000000,-7.070354,-0.210010,-0.910046,1120
23.980814,-71.942444,-911.270935,146.666672,86.666664,245.000000,-8.190410,-0.280014,-0.070004,1121
35.971222,-35.971222,-911.270935,142.222229,71.111115,235.000000,-8.820441,-0.210010,0.350018,1122
47.961628,-23.980814,-887.290100,144.444443,80.000000,240.000000,-9.730487,-0.140007,0.350018,1123
47.961628,-35.971222,-899.280518,137.777771,75.555557,237.500000,-9.730487,-0.070004,0.210010,1124
23.980814,-47.961628,-887.290100,144.444443,88.888885,240.000000,-9.240462,0.210010,0.700035,1125
23.980814,-23.980814,-923.261353,137.777771,77.777779,237.500000,-9.870494,0.210010,0.700035,1126
0.000000,0.000000,-887.290100,144.444443,86.666664,240.000000,-9.450473,0.350018,-0.070004,1127
0.000000,-35.971222,-899.280518,140.000000,73.333336,232.500000,-9.730487,0.000000,0.910046,1128
47.961628,-47.961628,-911.270935,146.666672,84.444443,242.500000,-9.940497,0.280014,1.050053,1129
23.980814,-35.971222,-923.261353,144.444443,80.000000,237.500000,-9.730487,0.420021,0.000000,1130
0.000000,-23.980814,-863.309326,144.444443,80.000000,237.500000,-8.610431,-0.070004,0.210010,1131
11.990407,-23.980814,-863.309326,137.777771,75.555557,242.500000,-7.420371,0.350018,-0.420021,1132
47.961628,0.000000,-887.290100,142.222229,86.666664,240.000000,-7.420371,0.000000,-0.210010,1133
0.000000,-23.980814,-863.309326,137.777771,75.555557,237.500000,-7.910396,0.560028,-1.120056,1134
11.990407,-23.980814,-887.290100,146.666672,86.666664,240.000000,-7.560378,0.280014,-1.190060,1135
11.990407,-35.971222,-887.290100,140.000000,73.333336,235.000000,-7.840392,-0.070004,-0.350018,1136
47.961628,-95.923256,-887.290100,144.444443,86.666664,237.500000,-7.840392,0.070004,-1.400070,1137
23.980814,-47.961628,-935.251770,144.444443,75.555557,237.500000,-7.840392,0.210010,-0.980049,1138
23.980814,-23.980814,-911.270935,140.000000,84.444443,240.000000,-8.050403,0.490025,-0.210010,1139
47.961628,-47.961628,-887.290100,140.000000,73.333336,235.000000,-7.840392,-0.140007,-0.560028,1140
-23.980814,-23.980814,-911.270935,142.222229,86.666664,245.000000,-9.170459,0.140007,0.070004,1141
23.980814,-35.971222,-911.270935,137.777771,68.888885,240.000000,-9.240462,-0.420021,0.070004,1142
71.942444,-23.980814,-839.328491,144.444443,86.666664,242.500000,-10.500525,-0.210010,-0.420021,1143
23.980814,-23.980814,-887.290100,140.000000,77.777779,237.500000,-10.640532,-0.210010,0.000000,1144
0.000000,-47.961628,-959.232544,144.444443,80.000000,237.500000,-10.850543,-0.350018,-0.420021,1145
23.980814,-47.961628,-887.290100,142.222229,75.555557,237.500000,-10.150508,-0.350018,-0.840042,1146
23.980814,-23.980814,-911.270935,144.444443,88.888885,240.000000,-10.570529,-0.140007,-0.560028,1147
11.990407,-23.980814,-875.299744,140.000000,75.555557,237.500000,-11.060554,-0.350018,-0.140007,1148
71.942444,-71.942444,-791.366882,142.222229,84.444443,237.500000,-10.220511,0.280014,-1.820091,1149
35.971222,-71.942444,-839.328491,140.000000,73.333336,240.000000,-9.520476,0.700035,-2.170109,1150
-815.347656,191.846512,-1151.079102,144.444443,84.444443,242.500000,-8.260413,-0.490025,-6.090304,1151
-107.913666,0.000000,-959.232544,140.000000,73.333336,235.000000,-8.330417,-0.210010,-11.410571,1152
0.000000,-23.980814,-887.290100,144.444443,80.000000,237.500000,-7.560378,-0.070004,-9.170459,1153
11.990407,-23.980814,-863.309326,142.222229,73.333336,237.500000,-5.110256,-0.490025,-1.610080,1154
23.980814,-71.942444,-887.290100,144.444443,86.666664,240.000000,-6.090304,0.840042,-1.400070,1155
11.990407,-47.961628,-911.270935,140.000000,68.888885,240.000000,-5.180259,0.770038,-0.840042,1156
-23.980814,-71.942444,-911.270935,142.222229,84.444443,245.000000,-5.390270,0.210010,-1.120056,1157
0.000000,-59.952034,-911.270935,140.000000,75.555557,237.500000,-5.390270,0.560028,-0.210010,1158
71.942444,-23.980814,-887.290100,144.444443,86.666664,245.000000,-6.230311,0.840042,-1.050053,1159
23.980814,-11.990407,-899.280518,140.000000,80.000000,240.000000,-6.790339,0.630032,-0.980049,1160
47.961628,-23.980814,-911.270935,142.222229,82.222221,240.000000,-6.510325,0.560028,-0.350018,1161
23.980814,-11.990407,-887.290100,140.000000,71.111115,237.500000,-6.230311,0.210010,-0.420021,1162
0.000000,-47.961628,-887.290100,144.444443,84.444443,242.500000,-6.650332,0.140007,0.140007,1163
0.000000,-863.309326,144.444443,84.444443,240.000000,-6.580329,-0.280014,0.420021,0.000000,1164
47.961628,0.000000,-863.309326,144.444443,84.444443,240.000000,-6.580329,-0.280014,0.420021,1165
35.971222,-11.990407,-863.309326,144.444443,73.333336,235.000000,-6.650332,-0.700035,0.700035,1166
23.980814,-47.961628,-887.290100,140.000000,84.444443,240.000000,-6.510325,-0.630032,0.280014,1167
11.990407,-23.980814,-911.270935,140.000000,80.000000,237.500000,-6.300315,-0.350018,0.070004,1168
11.990407,-35.971222,-863.309326,144.444443,86.666664,237.500000,-6.440322,-0.560028,0.070004,1169
23.980814,-35.971222,-875.299744,140.000000,71.111115,237.500000,-6.160308,0.000000,1.190060,1170
0.000000,0.000000,-887.290100,144.444443,86.666664,240.000000,-6.580329,-0.070004,1.050053,1171
11.990407,-23.980814,-911.270935,140.000000,75.555557,237.500000,-6.440322,-0.490025,-0.070004,1172
-23.980814,-23.980814,-863.309326,142.222229,84.444443,242.500000,-6.230311,-0.140007,0.350018,1173
0.000000,-11.990407,-875.299744,140.000000,71.111115,237.500000,-5.950297,0.350018,0.210010,1174
71.942444,-23.980814,-911.270935,140.000000,82.222221,242.500000,-6.090304,0.490025,-0.140007,1175
47.961628,-23.980814,-875.299744,140.000000,77.777779,240.000000,-6.090304,0.140007,-0.350018,1176
0.000000,0.000000,-887.290100,144.444443,86.666664,240.000000,-7.140357,-0.070004,-0.980049,1177
11.990407,-23.980814,-887.290100,140.000000,73.333336,237.500000,-7.770389,0.280014,-1.470073,1178
0.000000,-23.980814,-863.309326,144.444443,84.444443,242.500000,-7.770389,0.000000,-0.700035,1179
23.980814,-11.990407,-887.290100,142.222229,71.111115,237.500000,-8.680434,0.350018,-1.470073,1180
0.000000,0.000000,-959.232544,142.222229,84.444443,240.000000,-7.910396,0.280014,-0.840042,1181
11.990407,-35.971222,-887.290100,137.777771,75.555557,237.500000,-8.190410,0.630032,-0.490025,1182
0.000000,0.000000,-887.290100,144.444443,80.000000,240.000000,-7.630382,0.980049,0.000000,1183
11.990407,-47.961628,-887.290100,140.000000,71.111115,237.500000,-7.210361,0.560028,-0.280014,1184
23.980814,-47.961628,-863.309326,146.666672,84.444443,237.500000,-6.230311,0.350018,0.000000,1185
0.000000,-23.980814,-899.280518,140.000000,75.555557,237.500000,-6.160308,0.630032,-0.210010,1186
23.980814,-23.980814,-959.232544,137.777771,86.666664,240.000000,-6.650332,0.770038,0.140007,1187
35.971222,-11.990407,-911.270935,137.777771,73.333336,237.500000,-6.930346,0.490025,-0.070004,1188
23.980814,-71.942444,-935.251770,146.666672,86.666664,240.000000,-6.300315,0.490025,0.070004,1189
23.980814,-47.961628,-911.270935,142.222229,80.000000,240.000000,-6.300315,0.350018,0.210010,1190
