ACC_X,ACC_Y,ACC_Z,MAG_X,MAG_Y,MAG_Z, GYRO_Y,GYRO_X,GYRO_Z,COUNT
-59.952034,1043.165405,-131.894485,211.111115,-508.888885,180.000000,-2.030102,-2.520126,-1.680084,0
-95.923256,1055.155884,-143.884888,211.111115,-504.444458,182.500000,-0.420021,-0.140007,-2.450123,1
-83.932854,1079.136597,-95.923256,208.888885,-506.666656,187.500000,0.210010,1.610080,-3.430171,2
-119.904068,983.213379,-95.923256,211.111115,-500.000000,180.000000,-0.560028,2.170109,-2.380119,3
-95.923256,1019.184631,-83.932854,211.111115,-504.444458,182.500000,-0.350018,2.870144,-1.330067,4
-23.980814,1055.155884,-71.942444,208.888885,-504.444458,180.000000,-0.560028,2.450123,-0.490025,5
-47.961628,1043.165405,-71.942444,206.666672,-508.888885,187.500000,-0.420021,2.590130,-0.420021,6
95.923256,1007.194214,-71.942444,208.888885,-502.222229,182.500000,-0.210010,2.450123,-0.560028,7
-35.971222,1031.175049,-71.942444,208.888885,-508.888885,185.000000,0.210010,2.310116,-0.770038,8
-119.904068,983.213379,-95.923256,213.333328,-500.000000,182.500000,-0.140007,1.400070,-1.750087,9
-95.923256,983.213379,-35.971222,206.666672,-511.111115,187.500000,-0.140007,0.280014,-2.240112,10
-47.961628,1031.175049,-119.904068,208.888885,-500.000000,177.500000,-0.630032,-2.030102,-0.840042,11
-71.942444,1031.175049,-83.932854,208.888885,-504.444458,185.000000,-0.420021,-2.800140,-0.350018,12
-47.961628,1007.194214,-95.923256,213.333328,-506.666656,185.000000,-1.050053,-3.010150,-0.980049,13
-59.952034,1031.175049,-95.923256,206.666672,-508.888885,185.000000,-1.540077,-2.660133,-0.770038,14
-95.923256,1079.136597,-143.884888,208.888885,-500.000000,182.500000,-1.470073,-1.400070,-1.120056,15
-107.913666,1055.155884,-95.923256,202.222229,-506.666656,185.000000,-1.260063,0.350018,-0.910046,16
-119.904068,1079.136597,-119.904068,206.666672,-506.666656,185.000000,-0.700035,2.240112,0.630032,17
-107.913666,1079.136597,-71.942444,208.888885,-508.888885,187.500000,-0.560028,3.570179,2.240112,18
-71.942444,1055.155884,-47.961628,211.111115,-500.000000,180.000000,-1.120056,4.480224,2.940147,19
-59.952034,1043.165405,-83.932854,211.111115,-506.666656,182.500000,-1.470073,4.690235,4.340217,20
-47.961628,1031.175049,-95.923256,206.666672,-508.888885,180.000000,-1.260063,5.110256,5.180259,21
-95.923256,1043.165405,-71.942444,204.444443,-511.111115,185.000000,-1.260063,5.110256,5.600280,22
-23.980814,1031.175049,-95.923256,211.111115,-504.444458,185.000000,-0.630032,4.690235,5.460273,23
-23.980814,995.203796,-107.913666,206.666672,-511.111115,182.500000,-0.350018,3.710186,5.740287,24
23.980814,959.232544,-95.923256,211.111115,-500.000000,182.500000,-0.420021,2.590130,4.620231,25
-59.952034,983.213379,-71.942444,202.222229,-508.888885,185.000000,0.140007,2.450123,2.380119,26
-23.980814,983.213379,-95.923256,208.888885,-506.666656,175.000000,0.490025,1.610080,0.070004,27
-71.942444,1031.175049,-95.923256,208.888885,-513.333313,182.500000,0.770038,1.190060,-1.610080,28
-95.923256,983.213379,-95.923256,204.444443,-506.666656,182.500000,1.120056,0.490025,-2.240112,29
-95.923256,1007.194214,-83.932854,206.666672,-506.666656,185.000000,0.770038,0.070004,-2.660133,30
-95.923256,1055.155884,-23.980814,206.666672,-502.222229,177.500000,0.630032,0.280014,-2.870144,31
-71.942444,1043.165405,-47.961628,204.444443,-511.111115,185.000000,0.560028,-0.210010,-2.660133,32
-47.961628,1007.194214,-47.961628,208.888885,-504.444458,182.500000,0.560028,-0.980049,-2.520126,33
-59.952034,1055.155884,-59.952034,206.666672,-506.666656,182.500000,1.120056,-1.610080,-2.590130,34
-47.961628,1007.194214,-71.942444,208.888885,-504.444458,182.500000,0.910046,-1.680084,-3.080154,35
-71.942444,1031.175049,-95.923256,206.666672,-506.666656,185.000000,0.420021,-2.100105,-1.960098,36
0.000000,1031.175049,-167.865707,206.666672,-504.444458,182.500000,0.630032,-2.730137,-1.680084,37
-47.961628,1043.165405,-107.913666,208.888885,-506.666656,177.500000,-0.070004,-2.170109,-1.400070,38
-71.942444,1007.194214,-47.961628,211.111115,-502.222229,180.000000,-0.560028,-2.870144,-0.910046,39
-47.961628,1019.184631,-59.952034,206.666672,-506.666656,185.000000,-0.910046,-3.500175,-0.490025,40
-71.942444,1007.194214,-95.923256,208.888885,-504.444458,177.500000,-2.310116,-3.850193,-0.070004,41
-95.923256,995.203796,-83.932854,204.444443,-508.888885,187.500000,-2.730137,-3.850193,0.070004,42
-71.942444,1031.175049,-95.923256,211.111115,-506.666656,180.000000,-2.730137,-3.710186,0.350018,43
-59.952034,1007.194214,-107.913666,204.444443,-506.666656,187.500000,-2.800140,-2.800140,0.980049,44
-95.923256,1031.175049,0.000000,208.888885,-500.000000,180.000000,-2.590130,-2.590130,1.260063,45
-95.923256,1031.175049,-95.923256,211.111115,-508.888885,177.500000,-1.890095,-1.680084,0.420021,46
-119.904068,1007.194214,-119.904068,206.666672,-506.666656,185.000000,-2.100105,-0.350018,-1.330067,47
-83.932854,1043.165405,-131.894485,206.666672,-508.888885,185.000000,-1.960098,0.980049,-1.120056,48
-47.961628,983.213379,-95.923256,211.111115,-500.000000,180.000000,-1.470073,1.820091,0.140007,49
-59.952034,1019.184631,-83.932854,206.666672,-508.888885,187.500000,-1.330067,2.450123,-0.140007,50
-71.942444,1103.117432,-95.923256,206.666672,-504.444458,180.000000,-1.260063,2.030102,0.280014,51
-107.913666,1067.146240,-107.913666,206.666672,-511.111115,182.500000,-1.120056,1.120056,0.070004,52
-71.942444,1007.194214,-119.904068,213.333328,-502.222229,185.000000,-0.770038,1.540077,-0.280014,53
-71.942444,1007.194214,-107.913666,208.888885,-506.666656,187.500000,-0.910046,1.190060,-0.560028,54
-47.961628,1031.175049,-47.961628,206.666672,-506.666656,185.000000,-0.700035,0.560028,-0.560028,55
-47.961628,1007.194214,-95.923256,204.444443,-508.888885,185.000000,-1.050053,0.350018,-1.120056,56
-71.942444,1007.194214,-95.923256,206.666672,-504.444458,182.500000,-1.260063,0.140007,-0.700035,57
-47.961628,1007.194214,-71.942444,206.666672,-513.333313,185.000000,-1.610080,-0.210010,0.280014,58
-95.923256,1007.194214,-119.904068,208.888885,-504.444458,182.500000,-1.890095,0.140007,0.350018,59
-107.913666,1031.175049,-131.894485,211.111115,-508.888885,185.000000,-1.960098,0.280014,-0.560028,60
-23.980814,1055.155884,-95.923256,208.888885,-502.222229,177.500000,-1.820091,1.400070,-1.260063,61
-59.952034,1031.175049,-59.952034,208.888885,-508.888885,187.500000,-1.540077,1.750087,-2.100105,62
-23.980814,1007.194214,-119.904068,211.111115,-504.444458,185.000000,-1.330067,2.100105,-2.450123,63
-71.942444,1019.184631,-131.894485,211.111115,-511.111115,182.500000,-1.050053,2.660133,-2.520126,64
-47.961628,1031.175049,-119.904068,208.888885,-506.666656,180.000000,-0.700035,2.590130,-2.660133,65
-47.961628,1019.184631,-119.904068,211.111115,-508.888885,185.000000,-0.140007,2.730137,-2.870144,66
-47.961628,983.213379,-119.904068,208.888885,-502.222229,180.000000,0.210010,2.730137,-2.730137,67
-59.952034,1031.175049,-107.913666,206.666672,-506.666656,182.500000,0.420021,2.310116,-2.940147,68
-47.961628,1031.175049,-71.942444,208.888885,-504.444458,182.500000,0.350018,2.030102,-3.640182,69
-59.952034,1007.194214,-47.961628,206.666672,-511.111115,185.000000,-0.140007,0.210010,-4.060203,70
-95.923256,1031.175049,-71.942444,211.111115,-500.000000,182.500000,-0.630032,-0.280014,-4.270214,71
-83.932854,1019.184631,-71.942444,208.888885,-502.222229,182.500000,-0.910046,-0.910046,-4.130207,72
-143.884888,1007.194214,-95.923256,211.111115,-506.666656,177.500000,-1.330067,-1.120056,-2.940147,73
-83.932854,1019.184631,-83.932854,211.111115,-513.333313,185.000000,-1.540077,-1.820091,-3.010150,74
-71.942444,1007.194214,-71.942444,211.111115,-497.777771,177.500000,-1.330067,-0.840042,-3.710186,75
-95.923256,1031.175049,-71.942444,208.888885,-508.888885,187.500000,-0.910046,-0.560028,-3.780189,76
-71.942444,1007.194214,-71.942444,211.111115,-504.444458,182.500000,-0.700035,-0.980049,-2.520126,77
-119.904068,1019.184631,-83.932854,204.444443,-513.333313,185.000000,-1.400070,-0.910046,-1.680084,78
-47.961628,1007.194214,-143.884888,211.111115,-502.222229,180.000000,-1.960098,-0.840042,-1.260063,79
-107.913666,1031.175049,-131.894485,211.111115,-506.666656,182.500000,-2.100105,-0.910046,0.070004,80
-95.923256,1007.194214,-143.884888,208.888885,-504.444458,180.000000,-1.750087,-0.350018,0.770038,81
-83.932854,1019.184631,-95.923256,206.666672,-508.888885,185.000000,-1.610080,0.700035,1.400070,82
0.000000,1031.175049,-119.904068,213.333328,-504.444458,180.000000,-1.610080,1.750087,2.030102,83
-47.961628,1043.165405,-107.913666,206.666672,-511.111115,185.000000,-2.240112,2.730137,3.710186,84
-119.904068,1031.175049,-95.923256,208.888885,-504.444458,180.000000,-2.450123,3.570179,4.340217,85
-83.932854,1031.175049,-95.923256,208.888885,-506.666656,185.000000,-2.800140,4.340217,4.410221,86
-119.904068,983.213379,-47.961628,208.888885,-500.000000,180.000000,-3.010150,4.340217,4.550228,87
-95.923256,1007.194214,-71.942444,206.666672,-508.888885,180.000000,-3.010150,4.690235,4.410221,88
-71.942444,1007.194214,-95.923256,206.666672,-506.666656,185.000000,-2.730137,4.760238,3.850193,89
-71.942444,983.213379,-83.932854,206.666672,-506.666656,182.500000,-2.310116,5.320266,3.850193,90
-23.980814,1007.194214,-119.904068,208.888885,-506.666656,180.000000,-1.120056,5.320266,2.730137,91
-35.971222,995.203796,-83.932854,206.666672,-511.111115,185.000000,-0.910046,5.320266,0.910046,92
-143.884888,1007.194214,-47.961628,213.333328,-506.666656,182.500000,-0.490025,3.990200,0.770038,93
-95.923256,1019.184631,-59.952034,206.666672,-513.333313,185.000000,-0.420021,3.500175,0.420021,94
-143.884888,1007.194214,-71.942444,213.333328,-502.222229,180.000000,-0.350018,2.240112,0.630032,95
-107.913666,1019.184631,-35.971222,208.888885,-511.111115,182.500000,-0.350018,1.260063,1.680084,96
-95.923256,1007.194214,-95.923256,211.111115,-506.666656,180.000000,-0.770038,0.980049,1.330067,97
-83.932854,1031.175049,-83.932854,206.666672,-511.111115,182.500000,-0.700035,-0.140007,0.770038,98
-95.923256,1055.155884,-143.884888,208.888885,-500.000000,180.000000,-0.980049,0.000000,0.770038,99
-59.952034,1031.175049,-107.913666,204.444443,-511.111115,182.500000,-1.120056,-0.630032,1.050053,100
-47.961628,1055.155884,-119.904068,211.111115,-502.222229,180.000000,-0.560028,-0.980049,1.260063,101
-59.952034,1043.165405,-95.923256,206.666672,-508.888885,182.500000,-0.700035,-0.630032,0.770038,102
-47.961628,1055.155884,-167.865707,208.888885,-506.666656,177.500000,-1.330067,-0.630032,0.770038,103
-71.942444,1043.165405,-143.884888,211.111115,-513.333313,182.500000,-0.840042,-0.840042,0.490025,104
-71.942444,1055.155884,-143.884888,206.666672,-504.444458,180.000000,-0.700035,-0.630032,1.190060,105
-83.932854,1031.175049,-83.932854,213.333328,-506.666656,182.500000,-1.120056,-0.280014,0.070004,106
0.000000,1055.155884,-143.884888,208.888885,-506.666656,177.500000,-0.700035,-0.280014,0.210010,107
-71.942444,1031.175049,-83.932854,206.666672,-511.111115,185.000000,-1.470073,0.350018,0.140007,108
-47.961628,959.232544,-95.923256,204.444443,-506.666656,177.500000,-0.840042,0.560028,-0.140007,109
-35.971222,983.213379,-71.942444,206.666672,-508.888885,182.500000,-0.630032,0.910046,-1.330067,110
-23.980814,1055.155884,-71.942444,208.888885,-504.444458,177.500000,-0.840042,0.070004,-2.100105,111
-35.971222,1067.146240,-95.923256,208.888885,-511.111115,182.500000,-1.400070,-0.910046,-2.800140,112
-47.961628,1055.155884,-143.884888,206.666672,-506.666656,177.500000,-0.840042,0.700035,-3.920196,113
-59.952034,1067.146240,-119.904068,208.888885,-506.666656,182.500000,1.540077,3.500175,-3.080154,114
-95.923256,1031.175049,-71.942444,208.888885,-504.444458,182.500000,1.610080,3.780189,-2.730137,115
-59.952034,1007.194214,-59.952034,206.666672,-511.111115,185.000000,0.280014,4.060203,-1.750087,116
-71.942444,959.232544,-95.923256,206.666672,-502.222229,175.000000,-1.260063,3.150157,0.490025,117
-59.952034,971.222961,-71.942444,206.666672,-511.111115,185.000000,-2.310116,2.520126,1.820091,118
-47.961628,959.232544,-71.942444,208.888885,-504.444458,177.500000,-2.520126,1.890095,1.960098,119
-11.990407,1007.194214,-59.952034,208.888885,-508.888885,182.500000,-2.380119,0.770038,0.490025,120
-95.923256,1031.175049,-95.923256,206.666672,-506.666656,175.000000,-0.420021,1.260063,0.420021,121
-59.952034,1007.194214,-59.952034,211.111115,-506.666656,185.000000,0.070004,1.540077,-0.910046,122
-119.904068,983.213379,-23.980814,206.666672,-508.888885,182.500000,-0.350018,1.050053,-0.490025,123
-95.923256,983.213379,-71.942444,204.444443,-511.111115,182.500000,-0.770038,-0.420021,-0.560028,124
-47.961628,1031.175049,-47.961628,211.111115,-502.222229,175.000000,-1.540077,-1.260063,0.840042,125
-71.942444,1043.165405,-71.942444,204.444443,-511.111115,182.500000,-0.980049,-1.820091,1.820091,126
-47.961628,1007.194214,-119.904068,208.888885,-506.666656,182.500000,-0.490025,-1.190060,0.700035,127
-71.942444,1031.175049,-95.923256,208.888885,-513.333313,182.500000,-0.350018,0.910046,-0.210010,128
-47.961628,1055.155884,-23.980814,206.666672,-508.888885,180.000000,-0.630032,2.870144,0.770038,129
-59.952034,1043.165405,-35.971222,206.666672,-508.888885,180.000000,-0.630032,3.080154,2.030102,130
-95.923256,1055.155884,-47.961628,206.666672,-506.666656,180.000000,-0.490025,3.430171,2.380119,131
-95.923256,1055.155884,-71.942444,206.666672,-508.888885,182.500000,-1.260063,2.590130,3.360168,132
-119.904068,1079.136597,-71.942444,208.888885,-506.666656,177.500000,-1.260063,2.170109,3.360168,133
-83.932854,1067.146240,-59.952034,206.666672,-511.111115,182.500000,-1.190060,2.170109,3.990200,134
-47.961628,983.213379,-71.942444,211.111115,-506.666656,177.500000,0.000000,1.890095,1.750087,135
-71.942444,983.213379,-83.932854,206.666672,-511.111115,185.000000,0.420021,1.890095,0.350018,136
-71.942444,983.213379,-95.923256,206.666672,-504.444458,175.000000,0.770038,2.030102,1.330067,137
-95.923256,1007.194214,-71.942444,204.444443,-513.333313,180.000000,0.000000,1.540077,1.260063,138
-71.942444,959.232544,-47.961628,206.666672,-506.666656,177.500000,-0.770038,1.190060,-0.490025,139
-47.961628,995.203796,-71.942444,206.666672,-506.666656,180.000000,0.210010,1.120056,-1.960098,140
-95.923256,1031.175049,-71.942444,206.666672,-504.444458,180.000000,0.420021,1.470073,-3.290164,141
-71.942444,1055.155884,-71.942444,204.444443,-508.888885,180.000000,0.840042,2.730137,-3.290164,142
-47.961628,1031.175049,-71.942444,206.666672,-508.888885,177.500000,1.610080,2.590130,-2.660133,143
-71.942444,1019.184631,-59.952034,206.666672,-508.888885,180.000000,1.400070,1.820091,-2.240112,144
-23.980814,1007.194214,-47.961628,211.111115,-508.888885,175.000000,0.350018,1.190060,-0.840042,145
-71.942444,1031.175049,-59.952034,204.444443,-513.333313,180.000000,0.000000,-0.350018,-0.560028,146
-119.904068,1031.175049,-95.923256,204.444443,-508.888885,175.000000,-1.120056,-0.910046,0.210010,147
-71.942444,1007.194214,-83.932854,206.666672,-506.666656,172.500000,-0.770038,-0.980049,1.260063,148
-47.961628,983.213379,-71.942444,206.666672,-504.444458,175.000000,-0.700035,-0.350018,2.310116,149
-59.952034,1031.175049,-83.932854,206.666672,-511.111115,182.500000,-0.280014,0.350018,2.030102,150
-95.923256,1103.117432,-143.884888,206.666672,-506.666656,175.000000,-0.280014,0.980049,2.170109,151
-59.952034,1055.155884,-95.923256,202.222229,-515.555542,180.000000,-0.350018,1.260063,2.170109,152
-95.923256,1007.194214,-47.961628,208.888885,-506.666656,177.500000,-0.770038,1.680084,2.310116,153
-59.952034,1007.194214,-71.942444,206.666672,-513.333313,185.000000,-0.910046,1.680084,1.120056,154
-23.980814,1031.175049,-71.942444,204.444443,-506.666656,177.500000,-0.700035,2.170109,0.910046,155
-23.980814,1043.165405,-59.952034,206.666672,-508.888885,182.500000,-0.560028,2.450123,0.770038,156
-95.923256,1079.136597,-71.942444,204.444443,-506.666656,180.000000,-0.840042,2.380119,1.820091,157
-71.942444,1031.175049,-59.952034,204.444443,-511.111115,185.000000,-0.350018,1.750087,2.240112,158
-95.923256,1007.194214,-95.923256,208.888885,-508.888885,180.000000,-0.630032,1.050053,2.310116,159
-47.961628,1031.175049,-83.932854,206.666672,-513.333313,185.000000,-0.560028,-0.070004,1.330067,160
-47.961628,1031.175049,-23.980814,208.888885,-508.888885,175.000000,-0.490025,-0.280014,0.140007,161
-83.932854,1031.175049,-83.932854,208.888885,-511.111115,182.500000,0.700035,-0.630032,-1.260063,162
-47.961628,1055.155884,-71.942444,206.666672,-508.888885,175.000000,0.770038,-0.910046,-1.120056,163
-71.942444,1019.184631,-71.942444,208.888885,-508.888885,177.500000,0.560028,-1.680084,-1.050053,164
-95.923256,1031.175049,-47.961628,206.666672,-508.888885,175.000000,0.210010,-3.010150,-0.350018,165
-47.961628,995.203796,-59.952034,204.444443,-511.111115,182.500000,0.000000,-3.010150,0.070004,166
-71.942444,983.213379,-71.942444,204.444443,-508.888885,177.500000,-0.210010,-2.940147,-0.420021,167
-35.971222,1007.194214,-47.961628,204.444443,-513.333313,180.000000,0.000000,-2.520126,-0.700035,168
-71.942444,1007.194214,-47.961628,208.888885,-508.888885,175.000000,0.000000,-1.540077,-1.610080,169
-35.971222,1019.184631,-71.942444,204.444443,-520.000000,177.500000,0.840042,-0.770038,-2.660133,170
-23.980814,1031.175049,-119.904068,206.666672,-508.888885,177.500000,0.840042,0.140007,-2.380119,171
-59.952034,1019.184631,-83.932854,206.666672,-511.111115,182.500000,1.400070,0.140007,-2.590130,172
-23.980814,1055.155884,-95.923256,204.444443,-508.888885,180.000000,0.560028,1.400070,-2.100105,173
-47.961628,1019.184631,-71.942444,206.666672,-508.888885,182.500000,0.280014,0.630032,-1.820091,174
-71.942444,1031.175049,-71.942444,208.888885,-504.444458,177.500000,0.630032,-0.140007,-1.470073,175
-83.932854,1055.155884,-23.980814,204.444443,-515.555542,182.500000,1.400070,-0.490025,-1.400070,176
-119.904068,1031.175049,-71.942444,206.666672,-506.666656,175.000000,1.330067,-0.420021,-1.260063,177
-59.952034,1019.184631,-59.952034,204.444443,-513.333313,182.500000,1.330067,-0.210010,0.000000,178
-47.961628,1055.155884,-47.961628,206.666672,-506.666656,180.000000,1.400070,-0.420021,1.330067,179
-59.952034,1055.155884,-83.932854,206.666672,-511.111115,182.500000,1.820091,-0.280014,1.960098,180
0.000000,1031.175049,-23.980814,206.666672,-506.666656,177.500000,1.190060,0.490025,1.680084,181
-35.971222,1043.165405,-71.942444,204.444443,-506.666656,180.000000,0.700035,0.700035,1.750087,182
-119.904068,1007.194214,-95.923256,204.444443,-506.666656,180.000000,-0.560028,0.700035,1.190060,183
-95.923256,1031.175049,-83.932854,204.444443,-513.333313,185.000000,-0.630032,0.840042,2.170109,184
-95.923256,1007.194214,-47.961628,206.666672,-508.888885,177.500000,-0.490025,1.050053,3.500175,185
-83.932854,1019.184631,-71.942444,202.222229,-513.333313,182.500000,-1.050053,1.190060,3.150157,186
-71.942444,983.213379,-71.942444,208.888885,-508.888885,177.500000,-1.400070,1.610080,3.500175,187
-47.961628,1019.184631,-71.942444,202.222229,-517.777771,180.000000,-1.820091,1.260063,3.990200,188
-95.923256,1055.155884,-95.923256,202.222229,-508.888885,175.000000,-1.400070,1.330067,4.270214,189
-71.942444,1031.175049,-59.952034,202.222229,-511.111115,177.500000,-1.330067,1.050053,4.340217,190
-95.923256,1007.194214,-47.961628,202.222229,-506.666656,180.000000,-1.400070,1.400070,4.690235,191
-47.961628,995.203796,-35.971222,204.444443,-517.777771,177.500000,-1.470073,1.120056,4.900245,192
-71.942444,1031.175049,-71.942444,211.111115,-508.888885,177.500000,-1.540077,0.560028,4.830242,193
-35.971222,1007.194214,-59.952034,202.222229,-511.111115,182.500000,-1.260063,-0.140007,3.710186,194
-23.980814,1079.136597,-47.961628,206.666672,-506.666656,175.000000,-0.140007,0.000000,3.360168,195
-59.952034,1031.175049,-83.932854,204.444443,-513.333313,180.000000,-0.700035,-0.420021,3.710186,196
-23.980814,1031.175049,-71.942444,202.222229,-511.111115,175.000000,0.000000,-0.420021,2.380119,197
-23.980814,1019.184631,-71.942444,204.444443,-511.111115,180.000000,0.350018,-0.700035,1.400070,198
-23.980814,983.213379,-119.904068,202.222229,-508.888885,182.500000,0.280014,-0.560028,0.840042,199
-47.961628,1007.194214,-71.942444,204.444443,-515.555542,185.000000,0.280014,0.350018,-0.840042,200
-71.942444,983.213379,-119.904068,206.666672,-508.888885,175.000000,0.560028,0.560028,-1.050053,201
-95.923256,1019.184631,-71.942444,200.000000,-513.333313,182.500000,0.000000,0.070004,-1.330067,202
-47.961628,1031.175049,-95.923256,204.444443,-504.444458,177.500000,-0.560028,0.000000,-0.980049,203
-83.932854,1043.165405,-47.961628,202.222229,-517.777771,185.000000,-0.910046,-0.490025,-1.050053,204
-95.923256,1031.175049,-71.942444,202.222229,-506.666656,180.000000,-1.190060,-0.910046,-0.210010,205
-83.932854,1019.184631,-83.932854,202.222229,-513.333313,182.500000,-1.610080,-1.680084,1.750087,206
-47.961628,1031.175049,-47.961628,202.222229,-513.333313,182.500000,-2.030102,-1.540077,2.660133,207
-47.961628,1007.194214,-71.942444,206.666672,-513.333313,182.500000,-1.750087,-2.240112,3.570179,208
-23.980814,1007.194214,-71.942444,202.222229,-506.666656,180.000000,-2.030102,-1.400070,4.270214,209
-11.990407,1031.175049,-83.932854,206.666672,-517.777771,182.500000,-1.820091,-1.260063,3.290164,210
-47.961628,1007.194214,-143.884888,204.444443,-508.888885,180.000000,-0.560028,-1.050053,2.240112,211
-35.971222,1007.194214,-119.904068,200.000000,-511.111115,185.000000,-0.070004,0.210010,1.820091,212
-23.980814,1031.175049,-47.961628,206.666672,-511.111115,180.000000,0.140007,0.770038,1.260063,213
-23.980814,1007.194214,-83.932854,200.000000,-515.555542,182.500000,-0.140007,1.330067,1.680084,214
-71.942444,1007.194214,-47.961628,202.222229,-508.888885,180.000000,-0.350018,2.030102,0.770038,215
-35.971222,995.203796,-83.932854,206.666672,-508.888885,182.500000,0.140007,2.730137,1.960098,216
-71.942444,1031.175049,-95.923256,204.444443,-511.111115,175.000000,0.350018,2.870144,1.890095,217
-95.923256,1007.194214,-71.942444,200.000000,-511.111115,182.500000,-0.350018,2.940147,1.820091,218
-23.980814,1007.194214,-23.980814,204.444443,-506.666656,177.500000,-0.910046,2.940147,2.660133,219
-47.961628,995.203796,-35.971222,202.222229,-511.111115,182.500000,-1.330067,3.360168,2.590130,220
-23.980814,1007.194214,-23.980814,202.222229,-511.111115,175.000000,-1.330067,3.570179,2.940147,221
-47.961628,1007.194214,-59.952034,200.000000,-513.333313,180.000000,-1.050053,3.430171,2.590130,222
-23.980814,1031.175049,-95.923256,202.222229,-511.111115,182.500000,-1.260063,3.850193,3.010150,223
-59.952034,1043.165405,-155.875290,202.222229,-511.111115,177.500000,-0.770038,3.850193,3.080154,224
-23.980814,1031.175049,-95.923256,200.000000,-508.888885,177.500000,0.140007,6.860343,0.000000,225
-83.932854,1031.175049,-59.952034,202.222229,-517.777771,182.500000,0.420021,4.410221,-1.190060,226
-47.961628,1031.175049,-95.923256,202.222229,-508.888885,182.500000,0.560028,3.990200,1.120056,227
-71.942444,1019.184631,-71.942444,200.000000,-515.555542,182.500000,0.490025,3.430171,2.240112,228
-71.942444,1031.175049,-71.942444,202.222229,-508.888885,175.000000,0.140007,3.150157,3.500175,229
-59.952034,1007.194214,-95.923256,202.222229,-517.777771,182.500000,-0.420021,2.380119,4.200210,230
-23.980814,1055.155884,-71.942444,204.444443,-506.666656,177.500000,-1.120056,2.660133,4.200210,231
-47.961628,1043.165405,-59.952034,200.000000,-511.111115,182.500000,-1.400070,2.660133,2.800140,232
-47.961628,1031.175049,-71.942444,200.000000,-506.666656,175.000000,-0.840042,3.080154,2.660133,233
-47.961628,1007.194214,-83.932854,200.000000,-515.555542,177.500000,-1.820091,3.640182,2.940147,234
-47.961628,1031.175049,-119.904068,200.000000,-511.111115,175.000000,-2.800140,3.150157,4.130207,235
-23.980814,1067.146240,-95.923256,200.000000,-517.777771,182.500000,-4.340217,3.220161,4.130207,236
-47.961628,983.213379,-95.923256,202.222229,-508.888885,175.000000,-4.410221,4.130207,3.850193,237
-83.932854,1031.175049,-59.952034,197.777771,-513.333313,180.000000,-4.620231,4.760238,2.660133,238
0.000000,1007.194214,-119.904068,202.222229,-511.111115,170.000000,-4.340217,5.670284,2.520126,239
-11.990407,1031.175049,-83.932854,200.000000,-520.000000,180.000000,-3.780189,7.350368,1.120056,240
-119.904068,1007.194214,-167.865707,200.000000,-511.111115,175.000000,-4.130207,7.910396,-0.140007,241
-119.904068,1019.184631,-107.913666,202.222229,-517.777771,177.500000,-4.270214,9.030452,0.840042,242
-47.961628,1007.194214,-71.942444,200.000000,-513.333313,175.000000,-3.640182,11.130557,3.360168,243
-83.932854,1019.184631,-47.961628,197.777771,-517.777771,175.000000,-4.410221,11.550578,5.250263,244
-71.942444,1031.175049,-23.980814,202.222229,-513.333313,170.000000,-4.270214,11.060554,4.760238,245
-47.961628,1007.194214,-59.952034,200.000000,-520.000000,175.000000,-3.990200,9.800490,4.340217,246
-71.942444,1031.175049,-47.961628,200.000000,-513.333313,170.000000,-3.780189,8.890445,4.550228,247
-23.980814,1031.175049,-71.942444,197.777771,-520.000000,175.000000,-3.570179,8.190410,4.970249,248
-47.961628,959.232544,-71.942444,195.555557,-513.333313,172.500000,-4.690235,6.720336,4.970249,249
-59.952034,995.203796,-35.971222,200.000000,-517.777771,175.000000,-5.530277,5.250263,4.830242,250
-47.961628,1007.194214,-47.961628,200.000000,-513.333313,172.500000,-5.530277,3.430171,4.830242,251
-71.942444,1007.194214,-23.980814,195.555557,-517.777771,175.000000,-5.040252,1.960098,6.160308,252
-23.980814,1031.175049,-71.942444,200.000000,-515.555542,170.000000,-5.110256,0.210010,7.140357,253
-23.980814,1019.184631,-83.932854,200.000000,-520.000000,177.500000,-5.040252,0.000000,6.300315,254
0.000000,1055.155884,-47.961628,204.444443,-513.333313,170.000000,-5.040252,-0.490025,5.390270,255
-23.980814,1007.194214,-95.923256,200.000000,-520.000000,172.500000,-4.130207,0.490025,4.270214,256
0.000000,1007.194214,-95.923256,200.000000,-513.333313,170.000000,-2.940147,0.560028,2.870144,257
0.000000,995.203796,-95.923256,195.555557,-515.555542,170.000000,-1.260063,0.420021,1.610080,258
-23.980814,1055.155884,-23.980814,200.000000,-508.888885,172.500000,-0.770038,0.490025,0.350018,259
-23.980814,1031.175049,-47.961628,195.555557,-522.222229,175.000000,-1.750087,0.980049,-0.420021,260
-23.980814,1055.155884,-95.923256,202.222229,-517.777771,172.500000,-2.940147,2.940147,0.420021,261
-11.990407,1055.155884,-59.952034,197.777771,-520.000000,175.000000,-3.360168,5.390270,0.350018,262
-47.961628,1007.194214,-47.961628,200.000000,-517.777771,170.000000,-2.870144,6.020301,-1.260063,263
-23.980814,1043.165405,-59.952034,195.555557,-520.000000,175.000000,-1.400070,6.020301,-4.130207,264
-47.961628,1031.175049,-47.961628,200.000000,-513.333313,167.500000,-0.280014,6.090304,-7.070354,265
-11.990407,983.213379,-23.980814,200.000000,-520.000000,172.500000,-0.070004,5.670284,-7.140357,266
0.000000,1007.194214,0.000000,200.000000,-513.333313,175.000000,0.420021,5.040252,-7.280364,267
-23.980814,1019.184631,-35.971222,202.222229,-520.000000,172.500000,0.000000,3.710186,-7.700385,268
-71.942444,1031.175049,-47.961628,202.222229,-513.333313,172.500000,-0.490025,2.660133,-8.050403,269
-59.952034,1043.165405,-71.942444,197.777771,-517.777771,175.000000,-0.420021,1.820091,-8.820441,270
-143.884888,1055.155884,-23.980814,202.222229,-517.777771,170.000000,0.700035,1.400070,-8.960448,271
-47.961628,1019.184631,-83.932854,200.000000,-522.222229,172.500000,2.660133,-0.840042,-7.350368,272
-71.942444,1007.194214,-71.942444,200.000000,-517.777771,170.000000,2.310116,-1.890095,-9.660483,273
-35.971222,1019.184631,-35.971222,200.000000,-520.000000,172.500000,2.450123,-1.330067,-11.480575,274
-95.923256,983.213379,0.000000,202.222229,-513.333313,172.500000,2.870144,-2.380119,-12.460623,275
-71.942444,1007.194214,-11.990407,202.222229,-515.555542,172.500000,4.270214,-3.920196,-12.600630,276
-71.942444,1031.175049,-95.923256,204.444443,-515.555542,170.000000,4.550228,-3.360168,-12.110605,277
-47.961628,1031.175049,-35.971222,204.444443,-520.000000,175.000000,4.690235,-4.480224,-12.880644,278
-71.942444,1055.155884,23.980814,204.444443,-513.333313,170.000000,4.130207,-5.040252,-12.670633,279
-203.836914,1007.194214,-23.980814,197.777771,-517.777771,175.000000,3.640182,-7.070354,-11.620582,280
-47.961628,1007.194214,-95.923256,206.666672,-511.111115,172.500000,4.620231,-7.490375,-3.010150,281
-47.961628,1031.175049,-71.942444,200.000000,-515.555542,175.000000,2.800140,-10.080504,4.550228,282
-47.961628,1055.155884,-71.942444,202.222229,-517.777771,170.000000,0.560028,-9.310466,5.600280,283
-47.961628,1007.194214,-47.961628,200.000000,-511.111115,172.500000,-1.190060,-8.610431,6.230311,284
-23.980814,1031.175049,-143.884888,206.666672,-508.888885,172.500000,-0.630032,-8.330417,7.560378,285
-47.961628,1043.165405,-95.923256,202.222229,-517.777771,182.500000,-1.610080,-6.790339,8.120406,286
-119.904068,1031.175049,-95.923256,206.666672,-511.111115,170.000000,-2.520126,-5.320266,9.590480,287
-83.932854,1031.175049,-71.942444,197.777771,-520.000000,172.500000,-2.940147,-5.110256,11.270564,288
-47.961628,1055.155884,-23.980814,204.444443,-513.333313,175.000000,-3.570179,-5.250263,11.900595,289
-47.961628,1031.175049,-47.961628,202.222229,-517.777771,175.000000,-4.690235,-4.830242,9.940497,290
-23.980814,1055.155884,-71.942444,195.555557,-517.777771,172.500000,-4.480224,-3.710186,9.100455,291
-11.990407,1067.146240,-35.971222,200.000000,-513.333313,175.000000,-3.780189,-2.380119,7.560378,292
-23.980814,1055.155884,-71.942444,202.222229,-508.888885,170.000000,-3.360168,-0.700035,5.250263,293
-23.980814,1019.184631,-71.942444,197.777771,-517.777771,175.000000,-2.590130,-0.210010,3.080154,294
-95.923256,1007.194214,0.000000,197.777771,-513.333313,175.000000,-2.310116,0.000000,0.840042,295
-59.952034,1031.175049,-35.971222,202.222229,-517.777771,172.500000,-2.030102,0.420021,-0.280014,296
0.000000,1007.194214,-47.961628,200.000000,-508.888885,175.000000,-1.400070,0.700035,-0.630032,297
-35.971222,1043.165405,-35.971222,200.000000,-520.000000,175.000000,-0.420021,0.770038,-1.680084,298
-23.980814,1031.175049,-71.942444,202.222229,-511.111115,172.500000,0.490025,0.350018,-1.190060,299
-11.990407,1043.165405,-35.971222,200.000000,-513.333313,175.000000,-0.140007,-1.190060,-0.630032,300
-47.961628,1007.194214,-71.942444,200.000000,-511.111115,172.500000,-0.630032,-2.310116,-0.490025,301
-11.990407,1019.184631,-71.942444,197.777771,-517.777771,175.000000,-0.490025,-3.080154,-0.560028,302
-23.980814,983.213379,-95.923256,200.000000,-513.333313,175.000000,-0.280014,-3.360168,-1.680084,303
-35.971222,1019.184631,-95.923256,200.000000,-517.777771,177.500000,0.280014,-2.800140,-1.750087,304
-71.942444,1031.175049,-47.961628,204.444443,-511.111115,172.500000,0.280014,-2.100105,-1.960098,305
-59.952034,1055.155884,-83.932854,200.000000,-520.000000,175.000000,0.840042,-1.190060,-1.330067,306
-71.942444,1007.194214,-47.961628,202.222229,-511.111115,172.500000,0.630032,-0.210010,-1.260063,307
-35.971222,1043.165405,-71.942444,200.000000,-513.333313,175.000000,0.210010,1.050053,-0.630032,308
0.000000,959.232544,-71.942444,200.000000,-517.777771,175.000000,0.070004,2.380119,-0.210010,309
-47.961628,995.203796,-59.952034,200.000000,-515.555542,175.000000,-0.560028,3.570179,-0.070004,310
-23.980814,1031.175049,-143.884888,204.444443,-511.111115,172.500000,0.000000,4.200210,1.120056,311
-23.980814,1031.175049,-71.942444,202.222229,-520.000000,180.000000,-0.630032,4.830242,0.280014,312
0.000000,1007.194214,-47.961628,200.000000,-513.333313,175.000000,-0.980049,5.600280,-0.560028,313
-11.990407,1019.184631,-71.942444,202.222229,-517.777771,182.500000,-2.240112,6.020301,-1.610080,314
-71.942444,983.213379,-95.923256,200.000000,-513.333313,167.500000,-3.010150,5.810291,-2.380119,315
-47.961628,1007.194214,-35.971222,200.000000,-517.777771,175.000000,-3.080154,5.880294,-2.380119,316
-47.961628,1079.136597,-47.961628,204.444443,-515.555542,175.000000,-4.130207,5.880294,-2.380119,317
-47.961628,1055.155884,-59.952034,204.444443,-515.555542,175.000000,-5.530277,5.110256,-2.730137,318
-23.980814,1079.136597,-23.980814,200.000000,-511.111115,170.000000,-7.210361,3.150157,-2.520126,319
-23.980814,1031.175049,-59.952034,202.222229,-524.444458,175.000000,-7.560378,2.940147,-3.990200,320
-23.980814,983.213379,0.000000,202.222229,-511.111115,167.500000,-7.210361,2.310116,-5.250263,321
-35.971222,1019.184631,-23.980814,202.222229,-520.000000,172.500000,-8.330417,1.470073,-6.440322,322
-47.961628,1031.175049,-119.904068,202.222229,-513.333313,172.500000,-10.010501,0.980049,-7.070354,323
-23.980814,1031.175049,-59.952034,202.222229,-515.555542,177.500000,-11.760588,0.000000,-8.960448,324
-47.961628,1055.155884,-95.923256,204.444443,-513.333313,170.000000,-12.880644,0.350018,-9.660483,325
-59.952034,1055.155884,-35.971222,204.444443,-513.333313,167.500000,-14.070704,0.350018,-11.550578,326
-47.961628,1031.175049,-95.923256,204.444443,-513.333313,165.000000,-15.820791,0.700035,-12.180609,327
-59.952034,1019.184631,-47.961628,204.444443,-517.777771,175.000000,-16.870844,0.770038,-12.740637,328
-23.980814,1055.155884,-47.961628,204.444443,-511.111115,167.500000,-19.040953,0.140007,-14.210711,329
-23.980814,1031.175049,-59.952034,204.444443,-515.555542,172.500000,-20.861044,-0.420021,-14.700735,330
-47.961628,1007.194214,-23.980814,211.111115,-513.333313,170.000000,-21.981100,-1.610080,-15.890795,331
-71.942444,1019.184631,-47.961628,206.666672,-515.555542,172.500000,-21.631083,-3.780189,-19.460974,332
-47.961628,1247.002319,-71.942444,206.666672,-511.111115,167.500000,-21.491076,-6.160308,-21.771090,333
-35.971222,1282.973511,-59.952034,211.111115,-513.333313,170.000000,-24.501225,-2.870144,-17.640882,334
-119.904068,1294.963989,-95.923256,211.111115,-513.333313,165.000000,-23.731186,2.170109,-10.850543,335
-107.913666,1270.983154,-83.932854,211.111115,-513.333313,170.000000,-20.231012,7.000350,-6.020301,336
-119.904068,1270.983154,0.000000,213.333328,-511.111115,167.500000,-17.990900,9.870494,-3.920196,337
-119.904068,1294.963989,11.990407,211.111115,-517.777771,165.000000,-17.430872,11.340568,-2.520126,338
-167.865707,1199.040771,-71.942444,215.555557,-508.888885,167.500000,-20.021002,14.350718,0.280014,339
-203.836914,1163.069458,-47.961628,215.555557,-520.000000,170.000000,-20.441023,12.110605,-7.140357,340
-191.846512,1175.059937,-71.942444,220.000000,-511.111115,162.500000,-17.920897,10.920547,-13.370668,341
-155.875290,1211.031128,-71.942444,217.777771,-511.111115,167.500000,-15.820791,8.960448,-25.341267,342
-143.884888,1199.040771,-71.942444,217.777771,-511.111115,165.000000,-15.190760,6.860343,-34.021702,343
-143.884888,1211.031128,-71.942444,217.777771,-515.555542,165.000000,-15.680784,3.570179,-39.341969,344
-95.923256,1318.944824,-71.942444,226.666672,-515.555542,160.000000,-14.490725,2.030102,-43.192162,345
-59.952034,1330.935181,-59.952034,226.666672,-513.333313,167.500000,-10.220511,1.120056,-48.582428,346
-47.961628,1366.906372,-47.961628,224.444443,-508.888885,165.000000,-4.830242,-2.380119,-50.892544,347
-83.932854,1342.925659,-83.932854,226.666672,-517.777771,167.500000,2.030102,-6.580329,-54.462723,348
-71.942444,1318.944824,-95.923256,231.111115,-508.888885,160.000000,10.080504,-10.850543,-55.932796,349
-35.971222,1342.925659,-83.932854,231.111115,-508.888885,160.000000,14.770739,-17.500875,-52.922646,350
0.000000,1342.925659,-47.961628,233.333328,-508.888885,165.000000,20.791040,-20.021002,-45.572281,351
-23.980814,1438.848877,-71.942444,235.555557,-511.111115,167.500000,25.411270,-20.791040,-33.041653,352
0.000000,1390.887207,-71.942444,233.333328,-502.222229,165.000000,26.111305,-23.661182,-24.151207,353
-47.961628,1366.906372,-71.942444,231.111115,-511.111115,170.000000,26.251312,-24.501225,-7.560378,354
-191.846512,1342.925659,-71.942444,233.333328,-506.666656,172.500000,27.931396,-23.311165,0.490025,355
-191.846512,1318.944824,-23.980814,233.333328,-511.111115,180.000000,28.211411,-23.311165,-0.910046,356
-215.827332,1318.944824,-23.980814,235.555557,-506.666656,175.000000,27.861393,-24.921246,-5.600280,357
-191.846512,1342.925659,0.000000,231.111115,-511.111115,180.000000,24.361217,-28.001400,-8.470424,358
-191.846512,1318.944824,0.000000,231.111115,-508.888885,175.000000,21.211061,-25.481274,-10.080504,359
-191.846512,1306.954346,-11.990407,231.111115,-506.666656,175.000000,19.250963,-25.971298,-11.550578,360
-143.884888,1175.059937,-239.808136,233.333328,-502.222229,177.500000,19.670984,-29.331467,-11.900595,361
11.990407,1342.925659,-143.884888,228.888885,-513.333313,187.500000,24.921246,-45.992302,-2.450123,362
23.980814,1294.963989,-23.980814,233.333328,-506.666656,182.500000,24.711235,-49.912495,18.620932,363
-95.923256,1199.040771,-47.961628,228.888885,-513.333313,192.500000,23.171160,-46.972347,26.881344,364
-119.904068,1103.117432,23.980814,233.333328,-502.222229,187.500000,21.281065,-43.122158,25.761288,365
-155.875290,1115.107910,155.875290,228.888885,-511.111115,192.500000,19.530977,-39.061954,18.550928,366
-95.923256,1127.098267,-71.942444,231.111115,-506.666656,195.000000,16.450823,-40.182011,7.700385,367
-35.971222,1103.117432,-71.942444,231.111115,-506.666656,197.500000,11.550578,-40.812042,5.110256,368
-95.923256,1175.059937,-143.884888,226.666672,-504.444458,192.500000,6.930346,-40.042004,9.240462,369
-83.932854,1151.079102,-83.932854,228.888885,-508.888885,202.500000,4.340217,-37.171860,15.610781,370
-95.923256,1127.098267,-95.923256,228.888885,-504.444458,195.000000,2.450123,-34.231712,19.670984,371
-155.875290,1115.107910,-59.952034,226.666672,-508.888885,202.500000,0.140007,-28.491425,21.561079,372
-167.865707,1079.136597,-95.923256,226.666672,-508.888885,200.000000,-2.590130,-20.021002,24.081203,373
-179.856110,1055.155884,-119.904068,226.666672,-515.555542,202.500000,-7.770389,-13.090654,28.911446,374
-95.923256,1199.040771,-23.980814,228.888885,-504.444458,202.500000,-10.990550,-11.060554,29.961498,375
-143.884888,1175.059937,-83.932854,222.222229,-511.111115,205.000000,-6.720336,-7.630382,23.801189,376
-167.865707,1079.136597,-119.904068,226.666672,-511.111115,205.000000,-9.870494,-8.470424,20.721037,377
-179.856110,1115.107910,-95.923256,224.444443,-520.000000,205.000000,-13.650682,-7.000350,18.970949,378
-143.884888,1055.155884,-191.846512,228.888885,-511.111115,200.000000,-16.940847,-3.780189,15.120756,379
-167.865707,1079.136597,-131.894485,224.444443,-517.777771,207.500000,-17.430872,0.350018,11.060554,380
-119.904068,1055.155884,-167.865707,226.666672,-511.111115,202.500000,-18.900946,1.890095,9.380469,381
-143.884888,1079.136597,-143.884888,224.444443,-517.777771,202.500000,-15.820791,5.320266,6.020301,382
-167.865707,959.232544,-143.884888,226.666672,-515.555542,200.000000,-16.870844,7.560378,-1.680084,383
-167.865707,1007.194214,-107.913666,228.888885,-524.444458,202.500000,-18.130907,8.400420,-7.980399,384
-143.884888,959.232544,-167.865707,228.888885,-517.777771,200.000000,-15.190760,13.580679,-12.670633,385
-119.904068,995.203796,-95.923256,228.888885,-522.222229,197.500000,-15.050753,15.680784,-13.580679,386
-23.980814,1007.194214,-95.923256,226.666672,-520.000000,200.000000,-12.740637,22.751139,-10.010501,387
-23.980814,1031.175049,-119.904068,228.888885,-524.444458,202.500000,-9.520476,25.131256,-2.800140,388
-71.942444,1079.136597,-191.846512,231.111115,-517.777771,197.500000,-6.370318,27.161358,6.790339,389
-83.932854,1055.155884,-23.980814,226.666672,-528.888916,200.000000,-4.060203,28.141407,12.040602,390
-119.904068,1055.155884,-191.846512,226.666672,-522.222229,195.000000,3.920196,28.141407,21.561079,391
-167.865707,1043.165405,-167.865707,224.444443,-533.333313,202.500000,12.670633,26.251312,28.701435,392
-143.884888,1079.136597,-191.846512,224.444443,-526.666687,192.500000,16.940847,25.551277,31.221561,393
-167.865707,1079.136597,-107.913666,222.222229,-531.111084,197.500000,25.481274,22.961149,32.131607,394
-191.846512,1031.175049,-167.865707,224.444443,-531.111084,195.000000,29.751488,19.530977,30.241512,395
-119.904068,1043.165405,-143.884888,217.777771,-535.555542,202.500000,32.201611,10.220511,28.211411,396
-47.961628,1055.155884,-71.942444,217.777771,-531.111084,202.500000,37.591881,1.400070,23.871193,397
-83.932854,1019.184631,-83.932854,213.333328,-542.222229,202.500000,36.751839,-9.100455,20.371019,398
-167.865707,983.213379,-143.884888,215.555557,-533.333313,197.500000,37.941898,-17.290865,16.660833,399
-83.932854,1031.175049,-167.865707,208.888885,-542.222229,200.000000,38.501926,-22.191111,11.620582,400
71.942444,815.347656,-407.673828,206.666672,-533.333313,202.500000,56.842842,-40.602032,16.450823,401
59.952034,887.290100,-299.760193,206.666672,-537.777771,207.500000,63.983200,-62.373119,19.320967,402
-71.942444,959.232544,47.961628,206.666672,-533.333313,212.500000,73.363670,-74.833740,20.091005,403
-59.952034,899.280518,23.980814,195.555557,-533.333313,222.500000,69.583481,-61.813091,21.491076,404
-119.904068,815.347656,23.980814,202.222229,-528.888916,217.500000,65.313263,-49.632481,20.511026,405
-71.942444,779.376465,-35.971222,195.555557,-535.555542,227.500000,59.993000,-39.761990,19.390970,406
-47.961628,911.270935,215.827332,200.000000,-531.111084,227.500000,46.482327,-32.201611,21.001051,407
35.971222,863.309326,119.904068,191.111115,-535.555542,227.500000,14.840742,-17.780890,36.051804,408
0.000000,719.424438,-71.942444,193.333328,-533.333313,230.000000,1.470073,-2.730137,52.712635,409
-47.961628,731.414856,-167.865707,186.666672,-535.555542,230.000000,7.070354,1.540077,50.892544,410
-215.827332,671.462830,-119.904068,188.888885,-533.333313,225.000000,15.960798,-2.520126,31.711586,411
-191.846512,623.501160,-47.961628,188.888885,-537.777771,230.000000,16.380819,-2.730137,3.920196,412
-167.865707,767.386047,-23.980814,188.888885,-533.333313,225.000000,13.930696,2.800140,-20.861044,413
-119.904068,695.443604,-47.961628,182.222229,-537.777771,232.500000,11.340568,6.790339,-34.651733,414
23.980814,695.443604,-167.865707,191.111115,-533.333313,225.000000,9.870494,13.020651,-37.941898,415
71.942444,767.386047,-83.932854,191.111115,-537.777771,232.500000,9.590480,10.500525,-35.491776,416
119.904068,791.366882,-47.961628,191.111115,-533.333313,227.500000,5.810291,11.410571,-23.241163,417
155.875290,815.347656,-47.961628,191.111115,-537.777771,232.500000,4.830242,15.050753,-14.420721,418
-263.788971,551.558716,-191.846512,193.333328,-542.222229,225.000000,5.810291,19.250963,-14.140707,419
-611.510742,551.558716,-119.904068,193.333328,-542.222229,230.000000,21.001051,21.981100,-69.233459,420
23.980814,647.481995,-335.731415,200.000000,-531.111084,222.500000,53.762688,44.312218,-157.647888,421
23.980814,839.328491,-287.769775,200.000000,-537.777771,230.000000,74.133705,34.511726,-172.418625,422
0.000000,959.232544,-287.769775,208.888885,-533.333313,225.000000,62.653133,3.710186,-143.367172,423
59.952034,947.242188,-239.808136,206.666672,-531.111084,232.500000,67.763390,-13.090654,-110.675537,424
71.942444,863.309326,-191.846512,213.333328,-524.444458,225.000000,77.213860,-22.821142,-73.713684,425
35.971222,875.299744,-179.856110,206.666672,-531.111084,237.500000,74.903748,-26.041302,-40.042004,426
-119.904068,791.366882,-167.865707,211.111115,-528.888916,232.500000,70.073502,-37.451874,-25.061253,427
-167.865707,707.434021,-167.865707,206.666672,-526.666687,235.000000,66.713333,-42.842144,-4.900245,428
-263.788971,575.539551,-119.904068,202.222229,-522.222229,240.000000,80.364021,-37.171860,-1.820091,429
-299.760193,623.501160,-83.932854,200.000000,-526.666687,245.000000,92.474625,-19.460974,-20.651033,430
-215.827332,719.424438,71.942444,200.000000,-520.000000,242.500000,93.734688,-0.910046,-35.141758,431
-239.808136,767.386047,119.904068,197.777771,-528.888916,247.500000,81.764091,18.620932,-39.131958,432
-215.827332,815.347656,23.980814,202.222229,-522.222229,245.000000,52.502625,32.201611,-37.521877,433
-227.817734,839.328491,47.961628,193.333328,-526.666687,247.500000,26.461323,44.102207,-35.631783,434
-215.827332,839.328491,-71.942444,200.000000,-520.000000,242.500000,-2.310116,50.542526,-31.781590,435
-239.808136,815.347656,-95.923256,202.222229,-524.444458,245.000000,-27.021351,49.772488,-24.221210,436
-215.827332,815.347656,-47.961628,202.222229,-524.444458,240.000000,-43.962200,41.372070,-18.340918,437
-179.856110,827.338074,-83.932854,206.666672,-531.111084,240.000000,-55.932796,37.941898,-13.020651,438
-167.865707,791.366882,-119.904068,208.888885,-526.666687,230.000000,-62.513126,36.751839,-11.270564,439
-131.894485,791.366882,-119.904068,206.666672,-528.888916,240.000000,-71.403572,33.881695,-5.320266,440
-167.865707,767.386047,-119.904068,208.888885,-524.444458,230.000000,-68.463425,34.861744,-3.570179,441
-179.856110,755.395630,-143.884888,211.111115,-531.111084,230.000000,-61.323067,38.151909,-3.150157,442
-143.884888,863.309326,-191.846512,215.555557,-526.666687,227.500000,-54.112705,40.462025,-4.830242,443
-167.865707,827.338074,-215.827332,213.333328,-533.333313,225.000000,-38.711937,43.752190,-5.040252,444
-47.961628,1055.155884,-407.673828,217.777771,-533.333313,225.000000,-27.161358,35.911797,-0.560028,445
-11.990407,1079.136597,-371.702637,213.333328,-537.777771,225.000000,2.100105,25.761288,10.570529,446
71.942444,1103.117432,-263.788971,213.333328,-533.333313,217.500000,30.661533,16.940847,29.121456,447
83.932854,1091.127075,-227.817734,206.666672,-542.222229,222.500000,54.812740,13.090654,50.262512,448
-47.961628,863.309326,-71.942444,206.666672,-535.555542,222.500000,73.083656,14.840742,74.133705,449
-47.961628,839.328491,-83.932854,197.777771,-542.222229,227.500000,74.273712,7.700385,79.383972,450
-143.884888,935.251770,23.980814,200.000000,-533.333313,220.000000,75.953796,3.920196,74.973747,451
-131.894485,935.251770,23.980814,193.333328,-542.222229,227.500000,73.363670,-1.750087,61.813091,452
-191.846512,911.270935,23.980814,193.333328,-540.000000,227.500000,63.773190,-2.520126,49.282463,453
-179.856110,935.251770,11.990407,188.888885,-544.444458,227.500000,51.172558,-2.520126,33.321667,454
-215.827332,839.328491,0.000000,184.444443,-542.222229,225.000000,40.112007,-1.190060,14.840742,455
-191.846512,923.261353,23.980814,182.222229,-542.222229,232.500000,25.691284,2.170109,-0.210010,456
-167.865707,959.232544,0.000000,188.888885,-535.555542,227.500000,11.760588,4.480224,-10.640532,457
-179.856110,959.232544,0.000000,182.222229,-544.444458,230.000000,-3.710186,5.180259,-16.520826,458
-191.846512,959.232544,47.961628,191.111115,-542.222229,225.000000,-15.470774,5.810291,-21.701086,459
-155.875290,947.242188,0.000000,184.444443,-544.444458,227.500000,-25.551277,7.840392,-24.991249,460
-119.904068,959.232544,0.000000,186.666672,-537.777771,225.000000,-36.471825,9.870494,-25.831291,461
-131.894485,947.242188,-11.990407,188.888885,-542.222229,227.500000,-44.662235,11.760588,-26.461323,462
23.980814,1223.021484,-143.884888,193.333328,-535.555542,220.000000,-45.782291,13.650682,-17.150858,463
-71.942444,983.213379,-47.961628,197.777771,-546.666687,230.000000,-48.652431,15.820791,-12.670633,464
-47.961628,983.213379,-191.846512,202.222229,-540.000000,217.500000,-47.182358,13.930696,-12.040602,465
-23.980814,983.213379,-155.875290,200.000000,-542.222229,220.000000,-37.451874,13.370668,-9.800490,466
23.980814,1031.175049,-191.846512,200.000000,-540.000000,217.500000,-27.861393,11.200561,-8.190410,467
47.961628,1067.146240,-203.836914,197.777771,-546.666687,220.000000,-11.410571,6.230311,0.630032,468
-71.942444,959.232544,-167.865707,197.777771,-540.000000,217.500000,6.650332,-3.920196,21.211061,469
-35.971222,1019.184631,-155.875290,200.000000,-537.777771,220.000000,14.490725,-8.960448,25.341267,470
47.961628,1055.155884,-215.827332,193.333328,-535.555542,217.500000,24.571228,-12.390619,25.551277,471
0.000000,1043.165405,-143.884888,193.333328,-546.666687,220.000000,33.181660,-17.150858,32.341618,472
-143.884888,983.213379,47.961628,191.111115,-542.222229,222.500000,32.551628,-22.681135,35.841793,473
-107.913666,1043.165405,-23.980814,188.888885,-544.444458,227.500000,29.121456,-27.861393,31.361568,474
-191.846512,959.232544,-47.961628,186.666672,-535.555542,222.500000,23.171160,-27.651382,27.581379,475
-167.865707,983.213379,-59.952034,184.444443,-544.444458,230.000000,20.441023,-27.441372,24.081203,476
-167.865707,863.309326,0.000000,188.888885,-537.777771,227.500000,14.420721,-24.781239,19.670984,477
-179.856110,911.270935,-11.990407,186.666672,-542.222229,232.500000,4.340217,-21.911097,9.030452,478
-191.846512,983.213379,-119.904068,184.444443,-542.222229,227.500000,-1.120056,-15.400770,-1.960098,479
-167.865707,1019.184631,-83.932854,182.222229,-540.000000,230.000000,-5.880294,-10.360518,-7.560378,480
-71.942444,1031.175049,-71.942444,186.666672,-537.777771,227.500000,-8.960448,-7.210361,-11.130557,481
-119.904068,1043.165405,-95.923256,184.444443,-542.222229,232.500000,-11.690584,-6.860343,-12.670633,482
-143.884888,1007.194214,-23.980814,188.888885,-535.555542,225.000000,-16.030802,-8.680434,-13.580679,483
-143.884888,1019.184631,-59.952034,184.444443,-542.222229,230.000000,-22.401121,-12.670633,-16.590830,484
-167.865707,1055.155884,-71.942444,191.111115,-533.333313,227.500000,-30.591530,-18.200911,-22.471125,485
-143.884888,1055.155884,-107.913666,193.333328,-537.777771,237.500000,-39.131958,-25.061253,-27.791389,486
-167.865707,1079.136597,-47.961628,193.333328,-537.777771,232.500000,-45.502277,-32.551628,-32.131607,487
-167.865707,1079.136597,-107.913666,193.333328,-535.555542,230.000000,-48.162407,-36.051804,-33.041653,488
-119.904068,1007.194214,-95.923256,197.777771,-531.111084,230.000000,-51.592579,-40.532028,-32.761639,489
-167.865707,1103.117432,-119.904068,202.222229,-533.333313,235.000000,-51.592579,-46.202312,-34.861744,490
-167.865707,1079.136597,-167.865707,204.444443,-526.666687,230.000000,-50.542526,-50.892544,-36.191811,491
-167.865707,1067.146240,-167.865707,206.666672,-533.333313,240.000000,-49.982498,-58.172909,-39.551979,492
-191.846512,983.213379,-119.904068,211.111115,-522.222229,235.000000,-49.422470,-64.543228,-45.362270,493
-155.875290,971.222961,-131.894485,206.666672,-522.222229,240.000000,-48.652431,-70.423523,-52.432621,494
-95.923256,959.232544,-71.942444,215.555557,-522.222229,237.500000,-49.002449,-76.443825,-57.472874,495
-107.913666,923.261353,-179.856110,217.777771,-515.555542,242.500000,-50.752537,-83.934196,-60.133007,496
-167.865707,983.213379,-239.808136,226.666672,-508.888885,240.000000,-45.922298,-97.934898,-66.503326,497
-131.894485,1031.175049,-203.836914,228.888885,-508.888885,247.500000,-39.901997,-104.725235,-68.953445,498
-95.923256,983.213379,-287.769775,235.555557,-500.000000,245.000000,-31.991600,-112.425621,-69.163460,499
-119.904068,1055.155884,-299.760193,231.111115,-504.444458,255.000000,-27.721386,-121.036057,-67.343369,500
-167.865707,1199.040771,-359.712219,240.000000,-493.333344,255.000000,-26.321316,-148.267410,-64.263214,501
-179.856110,1175.059937,-395.683441,235.555557,-493.333344,262.500000,-23.311165,-179.628983,-56.422821,502
-263.788971,1247.002319,-503.597107,240.000000,-482.222229,265.000000,-16.100805,-216.870850,-51.172558,503
-335.731415,1354.916016,-563.549133,240.000000,-473.333344,272.500000,-4.900245,-255.162766,-48.092403,504
-383.693024,1654.676147,-647.481995,237.777771,-457.777771,287.500000,12.880644,-291.634583,-47.182358,505
-347.721802,1426.858398,-623.501160,242.222229,-455.555542,300.000000,35.141758,-332.656647,-47.812389,506
-287.769775,1414.868042,-983.213379,242.222229,-435.555542,305.000000,55.442772,-383.479187,-41.372070,507
-191.846512,1546.762573,-731.414856,240.000000,-428.888885,322.500000,75.953796,-448.862457,-23.871193,508
-191.846512,887.290100,-647.481995,240.000000,-406.666656,332.500000,88.624435,-515.855774,-10.920547,509
-83.932854,1211.031128,-635.491577,237.777771,-395.555542,347.500000,105.425270,-578.578918,-16.030802,510
-119.904068,863.309326,-527.577942,237.777771,-368.888885,360.000000,108.015404,-638.781921,-24.221210,511
-71.942444,839.328491,-491.606689,228.888885,-348.888885,375.000000,106.755341,-665.033264,-30.731537,512
-47.961628,287.769775,-431.654663,226.666672,-324.444458,385.000000,103.325165,-711.025574,-34.371719,513
-83.932854,503.597107,-527.577942,220.000000,-271.111115,410.000000,94.574730,-763.528198,-47.812389,514
-239.808136,575.539551,-431.654663,224.444443,-235.555557,417.500000,102.135109,-798.599915,-62.023102,515
-131.894485,419.664246,-815.347656,213.333328,-206.666672,427.500000,103.115158,-835.841797,-80.224014,516
-431.654663,359.712219,-791.366882,213.333328,-166.666672,425.000000,116.625832,-865.733276,-102.835144,517
-395.683441,503.597107,-731.414856,202.222229,-137.777771,432.500000,136.926849,-908.085388,-133.636688,518
-335.731415,479.616272,-575.539551,202.222229,-91.111115,430.000000,160.588028,-928.456421,-161.078049,519
-479.616272,383.693024,-527.577942,191.111115,-57.777779,427.500000,186.629333,-941.827087,-186.909348,520
-863.309326,-1486.810547,-839.328491,186.666672,-15.555555,425.000000,196.219818,-950.717529,-200.840042,521
-575.539551,-731.414856,-1103.117432,164.444443,62.222221,407.500000,171.508575,-1016.240845,-193.279663,522
-287.769775,623.501160,-1031.175049,153.333328,104.444443,385.000000,179.908997,-1016.380859,-201.890091,523
-203.836914,431.654663,-1091.127075,142.222229,140.000000,370.000000,157.997894,-986.629333,-156.457825,524
-95.923256,479.616272,-1127.098267,140.000000,177.777771,345.000000,143.087158,-968.778442,-128.666428,525
0.000000,659.472412,-1318.944824,133.333328,202.222229,327.500000,125.586281,-928.246399,-79.243965,526
-23.980814,767.386047,-983.213379,126.666664,231.111115,300.000000,130.416519,-881.414063,-44.802242,527
-131.894485,635.491577,-815.347656,120.000000,248.888885,282.500000,98.424919,-881.554077,-25.761288,528
47.961628,575.539551,-1342.925659,120.000000,277.777771,250.000000,48.792439,-862.793152,-3.640182,529
23.980814,563.549133,-1019.184631,117.777779,300.000000,222.500000,14.910746,-847.322388,-2.800140,530
455.635468,599.520386,-839.328491,120.000000,335.555542,165.000000,4.270214,-847.602417,-17.990900,531
563.549133,287.769775,-731.414856,113.333336,337.777771,135.000000,20.651033,-821.141052,-19.390970,532
335.731415,311.750580,-815.347656,113.333336,357.777771,105.000000,25.761288,-764.578247,-34.091705,533
323.740997,155.875290,-683.453186,115.555557,360.000000,82.500000,24.921246,-718.445923,-8.750438,534
-383.693024,119.904068,-359.712219,113.333336,373.333344,50.000000,49.632481,-717.815918,19.530977,535
107.913666,-263.788971,-671.462830,115.555557,366.666656,27.500000,94.714737,-700.595032,41.722088,536
239.808136,-647.481995,-455.635468,117.777779,375.555542,-7.500000,120.126007,-689.394470,54.322716,537
167.865707,-467.625885,-215.827332,117.777779,382.222229,-27.500000,164.368225,-660.343018,56.772839,538
-359.712219,-383.693024,263.788971,126.666664,380.000000,-77.500000,187.539383,-647.462402,74.693733,539
-599.520386,-563.549133,371.702637,126.666664,373.333344,-95.000000,196.849838,-594.889771,83.304169,540
-47.961628,-1031.175049,263.788971,133.333328,375.555542,-115.000000,245.782288,-520.826050,75.533775,541
-227.817734,-503.597107,143.884888,131.111115,366.666656,-122.500000,334.056702,-408.540436,21.001051,542
-47.961628,-551.558716,71.942444,140.000000,366.666656,-135.000000,399.019958,-301.505066,13.370668,543
0.000000,-911.270935,-167.865707,137.777771,362.222229,-137.500000,478.333923,-195.519775,-7.700385,544
-47.961628,-1294.963989,-623.501160,153.333328,364.444458,-140.000000,494.364716,-151.907593,10.570529,545
-35.971222,-1235.011963,-575.539551,153.333328,362.222229,-135.000000,479.664001,-158.837936,54.532726,546
-479.616272,-1774.580200,-263.788971,157.777771,362.222229,-140.000000,590.969543,-96.604828,16.450823,547
-443.645050,-1858.513062,-311.750580,162.222229,353.333344,-127.500000,658.592957,-19.250963,-61.533077,548
-647.481995,-1894.484375,-215.827332,162.222229,362.222229,-120.000000,681.344055,6.160308,-167.098358,549
-959.232544,-1942.445923,-335.731415,153.333328,357.777771,-112.500000,653.272644,34.651733,-210.360519,550
-2038.369263,-1103.117432,1438.848877,146.666672,368.888885,-112.500000,444.242218,1.610080,-256.422821,551
503.597107,-887.290100,-1019.184631,137.777771,362.222229,-110.000000,71.193558,-118.165909,-238.501923,552
1007.194214,-767.386047,-863.309326,133.333328,368.888885,-120.000000,117.255867,-128.106400,-203.710190,553
1079.136597,-659.472412,-875.299744,126.666664,364.444458,-127.500000,17.430872,-232.271622,-126.076302,554
503.597107,-719.424438,119.904068,124.444443,366.666656,-135.000000,76.653831,-224.641235,-83.864197,555
563.549133,-731.414856,23.980814,115.555557,364.444458,-142.500000,106.615334,-138.186905,-89.254463,556
551.558716,-935.251770,-287.769775,117.777779,371.111115,-147.500000,103.955200,-74.413719,-73.643684,557
527.577942,-947.242188,-227.817734,108.888885,357.777771,-150.000000,103.325165,-42.422123,-59.152958,558
503.597107,-935.251770,-167.865707,117.777779,371.111115,-147.500000,107.805389,-21.841093,-43.192162,559
419.664246,-1079.136597,-95.923256,108.888885,364.444458,-145.000000,98.564926,-8.680434,-23.941196,560
287.769775,-1031.175049,-119.904068,113.333336,366.666656,-150.000000,94.784737,8.120406,-36.821842,561
263.788971,-1103.117432,-167.865707,108.888885,360.000000,-142.500000,90.094505,12.950647,-38.711937,562
215.827332,-983.213379,-191.846512,115.555557,366.666656,-147.500000,76.583832,17.570879,-36.191811,563
179.856110,-1079.136597,-203.836914,115.555557,364.444458,-142.500000,52.572628,17.850893,-37.381870,564
167.865707,-1175.059937,-311.750580,113.333336,368.888885,-142.500000,19.740988,10.500525,-39.481976,565
191.846512,-1163.069458,-251.798553,102.222221,362.222229,-137.500000,-10.080504,-1.820091,-39.341969,566
263.788971,-1055.155884,-215.827332,104.444443,371.111115,-147.500000,-39.271965,-17.010851,-31.781590,567
323.740997,-995.203796,-191.846512,102.222221,362.222229,-142.500000,-58.732937,-25.341267,-20.161009,568
359.712219,-935.251770,-239.808136,102.222221,366.666656,-147.500000,-65.383270,-19.600981,-5.180259,569
347.721802,-935.251770,-239.808136,100.000000,360.000000,-145.000000,-59.993000,-4.060203,10.360518,570
263.788971,-1055.155884,-311.750580,102.222221,364.444458,-147.500000,-48.232410,8.050403,17.850893,571
215.827332,-1043.165405,-395.683441,100.000000,364.444458,-145.000000,-40.602032,1.470073,17.990900,572
191.846512,-1031.175049,-359.712219,104.444443,364.444458,-150.000000,-36.471825,-12.250612,10.640532,573
251.798553,-1019.184631,-287.769775,102.222221,364.444458,-147.500000,-34.091705,-18.550928,1.260063,574
239.808136,-1127.098267,-215.827332,102.222221,364.444458,-147.500000,-29.751488,-25.971298,-2.310116,575
311.750580,-1019.184631,-323.740997,140.000000,508.888885,-205.000000,-25.481274,-32.691635,2.170109,576
167.865707,-983.213379,-335.731415,104.444443,364.444458,-152.500000,-15.400770,-36.751839,7.420371,577
191.846512,-1031.175049,-347.721802,102.222221,362.222229,-152.500000,-6.090304,-43.962200,10.080504,578
167.865707,-1270.983154,-407.673828,104.444443,364.444458,-157.500000,8.050403,-48.442421,4.060203,579
131.894485,-1294.963989,-371.702637,104.444443,360.000000,-157.500000,24.361217,-53.062653,-10.570529,580
143.884888,-1294.963989,-311.750580,104.444443,362.222229,-152.500000,36.471825,-48.862442,-23.031153,581
131.894485,-1306.954346,-287.769775,100.000000,357.777771,-160.000000,45.222263,-38.991951,-26.601330,582
191.846512,-1270.983154,-263.788971,104.444443,362.222229,-167.500000,52.292614,-28.351418,-27.791389,583
95.923256,-1211.031128,-311.750580,95.555557,357.777771,-160.000000,61.323067,-20.791040,-41.232063,584
311.750580,-1175.059937,-455.635468,102.222221,371.111115,-160.000000,62.303116,-21.841093,-55.932796,585
251.798553,-1151.079102,-371.702637,95.555557,357.777771,-162.500000,53.622681,-26.181309,-57.962898,586
431.654663,-983.213379,-215.827332,93.333336,362.222229,-165.000000,42.282116,-28.771439,-55.582779,587
287.769775,-923.261353,-59.952034,91.111115,362.222229,-162.500000,55.792789,-2.450123,-57.962898,588
239.808136,-959.232544,-215.827332,88.888885,362.222229,-165.000000,52.082603,30.101505,-58.522926,589
311.750580,-971.222961,-239.808136,86.666664,357.777771,-155.000000,18.900946,21.981100,-39.131958,590
239.808136,-911.270935,-215.827332,95.555557,368.888885,-160.000000,-9.800490,6.370318,-14.210711,591
239.808136,-923.261353,-203.836914,88.888885,362.222229,-157.500000,-43.542179,-4.970249,2.800140,592
359.712219,-839.328491,-191.846512,91.111115,366.666656,-165.000000,-56.912846,0.210010,1.610080,593
383.693024,-779.376465,-251.798553,84.444443,360.000000,-157.500000,-59.572979,12.250612,-0.350018,594
455.635468,-743.405273,-239.808136,88.888885,366.666656,-165.000000,-53.272663,22.821142,6.090304,595
419.664246,-815.347656,-299.760193,86.666664,362.222229,-155.000000,-55.372768,18.620932,15.050753,596
263.788971,-863.309326,-359.712219,86.666664,362.222229,-160.000000,-59.292965,12.460623,10.780540,597
287.769775,-851.318909,-347.721802,91.111115,364.444458,-157.500000,-54.882744,10.080504,-0.840042,598
263.788971,-815.347656,-335.731415,84.444443,366.666656,-165.000000,-54.672733,7.910396,-6.580329,599
287.769775,-803.357300,-323.740997,80.000000,362.222229,-155.000000,-56.492825,3.500175,-14.700735,600
191.846512,-887.290100,-335.731415,82.222221,366.666656,-160.000000,-54.672733,-2.380119,-24.291214,601
155.875290,-923.261353,-359.712219,75.555557,360.000000,-160.000000,-52.712635,-11.410571,-40.182011,602
95.923256,-959.232544,-359.712219,75.555557,371.111115,-165.000000,-59.292965,-28.701435,-63.213161,603
155.875290,-935.251770,-359.712219,71.111115,360.000000,-160.000000,-62.373119,-45.572281,-91.004555,604
191.846512,-959.232544,-239.808136,64.444443,364.444458,-167.500000,-61.323067,-62.723137,-114.175713,605
215.827332,-947.242188,-227.817734,62.222221,360.000000,-167.500000,-53.552677,-73.853691,-132.446625,606
215.827332,-911.270935,-191.846512,48.888889,366.666656,-180.000000,-46.552330,-75.673782,-144.837250,607
419.664246,-767.386047,-119.904068,40.000000,357.777771,-175.000000,-36.961849,-65.943298,-139.656982,608
623.501160,-599.520386,-71.942444,37.777779,364.444458,-182.500000,-25.201260,-53.132656,-108.855446,609
587.529968,-623.501160,-11.990407,33.333332,357.777771,-180.000000,-15.890795,-41.302067,-66.713333,610
311.750580,-767.386047,-23.980814,37.777779,364.444458,-182.500000,-15.610781,-37.031853,-30.661533,611
203.836914,-887.290100,47.961628,33.333332,357.777771,-177.500000,-18.480925,-32.131607,-21.561079,612
359.712219,-791.366882,23.980814,31.111111,366.666656,-185.000000,-24.571228,-27.791389,-15.400770,613
515.587524,-707.434021,47.961628,31.111111,360.000000,-187.500000,-18.760939,-18.830942,-9.450473,614
455.635468,-671.462830,23.980814,28.888889,357.777771,-187.500000,-4.760238,-4.690235,11.970598,615
455.635468,-659.472412,-119.904068,31.111111,357.777771,-182.500000,10.500525,17.710886,27.441372,616
479.616272,-887.290100,-239.808136,37.777779,364.444458,-187.500000,16.380819,27.791389,45.712288,617
539.568298,-899.280518,-395.683441,37.777779,357.777771,-180.000000,2.100105,12.880644,63.843193,618
527.577942,-1007.194214,-407.673828,44.444443,362.222229,-182.500000,-28.771439,-21.841093,98.774940,619
347.721802,-959.232544,-263.788971,44.444443,355.555542,-182.500000,-69.653481,-49.562477,118.725937,620
599.520386,-1007.194214,-239.808136,48.888889,362.222229,-190.000000,-101.925095,-51.592579,127.686386,621
407.673828,-1019.184631,-311.750580,55.555557,357.777771,-185.000000,-114.385719,-43.472176,134.616730,622
287.769775,-1127.098267,-455.635468,57.777779,357.777771,-190.000000,-113.125656,-39.061954,136.156815,623
239.808136,-1199.040771,-539.568298,64.444443,351.111115,-190.000000,-106.545326,-34.511726,132.236618,624
191.846512,-1055.155884,-455.635468,68.888885,355.555542,-202.500000,-86.454323,-41.792091,109.275467,625
203.836914,-995.203796,-359.712219,66.666664,351.111115,-195.000000,-71.753586,-44.522228,80.434021,626
359.712219,-815.347656,-239.808136,68.888885,355.555542,-197.500000,-64.613228,-33.111656,55.792789,627
407.673828,-755.395630,-239.808136,68.888885,348.888885,-195.000000,-51.662582,-12.110605,46.062305,628
359.712219,-815.347656,-191.846512,75.555557,355.555542,-200.000000,-36.891846,12.600630,44.872246,629
335.731415,-827.338074,-227.817734,73.333336,351.111115,-197.500000,-24.431221,34.021702,41.582081,630
263.788971,-863.309326,-215.827332,77.777779,353.333344,-197.500000,-14.910746,50.332516,34.511726,631
215.827332,-875.299744,-227.817734,77.777779,348.888885,-195.000000,-9.100455,60.133007,27.581379,632
167.865707,-959.232544,-215.827332,82.222221,357.777771,-192.500000,-3.290164,64.543228,17.500875,633
203.836914,-959.232544,-215.827332,77.777779,351.111115,-190.000000,0.980049,65.243263,6.650332,634
215.827332,-887.290100,-191.846512,80.000000,357.777771,-187.500000,-2.660133,65.103256,1.330067,635
215.827332,-899.280518,-227.817734,80.000000,353.333344,-180.000000,-6.370318,64.683235,0.980049,636
215.827332,-935.251770,-239.808136,80.000000,362.222229,-182.500000,-15.120756,65.173256,5.810291,637
203.836914,-923.261353,-215.827332,80.000000,360.000000,-175.000000,-22.541128,66.783340,12.670633,638
215.827332,-959.232544,-239.808136,80.000000,360.000000,-177.500000,-30.171509,66.503326,19.040953,639
227.817734,-923.261353,-227.817734,82.222221,357.777771,-175.000000,-26.951347,64.263214,26.601330,640
191.846512,-935.251770,-263.788971,84.444443,364.444458,-170.000000,-22.331118,57.752888,31.431572,641
335.731415,-851.318909,-359.712219,82.222221,357.777771,-167.500000,-17.570879,51.802589,31.011551,642
47.961628,-791.366882,-551.558716,86.666664,364.444458,-167.500000,-16.450823,44.942249,27.441372,643
-203.836914,-791.366882,-443.645050,82.222221,355.555542,-160.000000,-15.050753,26.181309,8.190410,644
359.712219,-719.424438,47.961628,86.666664,362.222229,-170.000000,-50.122505,23.941196,-8.960448,645
227.817734,-851.318909,-167.865707,80.000000,353.333344,-160.000000,-73.153656,49.982498,-5.040252,646
191.846512,-935.251770,-455.635468,82.222221,366.666656,-155.000000,-75.043755,50.822540,-6.090304,647
191.846512,-899.280518,-383.693024,80.000000,362.222229,-157.500000,-71.543579,50.262512,-1.050053,648
191.846512,-1055.155884,-431.654663,77.777779,366.666656,-157.500000,-66.083305,50.752537,2.100105,649
167.865707,-1223.021484,-311.750580,80.000000,360.000000,-155.000000,-57.822891,50.332516,9.030452,650
167.865707,-1270.983154,-335.731415,80.000000,364.444458,-152.500000,-43.612183,45.782291,15.960798,651
167.865707,-1079.136597,-347.721802,77.777779,364.444458,-150.000000,-32.551628,44.732239,20.721037,652
119.904068,-983.213379,-359.712219,84.444443,368.888885,-147.500000,-25.341267,50.262512,19.810991,653
155.875290,-1019.184631,-347.721802,82.222221,362.222229,-142.500000,-15.960798,57.402870,24.291214,654
167.865707,-1031.175049,-359.712219,88.888885,366.666656,-145.000000,-9.590480,61.883095,36.611832,655
215.827332,-947.242188,-347.721802,86.666664,366.666656,-142.500000,-10.360518,67.203362,46.202312,656
191.846512,-959.232544,-311.750580,91.111115,364.444458,-137.500000,-5.530277,66.853340,57.192860,657
179.856110,-863.309326,-395.683441,91.111115,364.444458,-132.500000,-0.560028,68.253410,64.543228,658
191.846512,-887.290100,-383.693024,95.555557,366.666656,-135.000000,6.370318,61.883095,59.642982,659
35.971222,-1055.155884,-95.923256,95.555557,360.000000,-125.000000,15.120756,51.592579,63.213161,660
167.865707,-743.405273,-503.597107,102.222221,368.888885,-135.000000,17.570879,-0.630032,73.923698,661
215.827332,-791.366882,-503.597107,102.222221,364.444458,-127.500000,15.470774,-3.080154,77.563881,662
191.846512,-767.386047,-383.693024,108.888885,366.666656,-135.000000,20.091005,1.050053,72.243614,663
191.846512,-731.414856,-371.702637,108.888885,360.000000,-127.500000,21.351068,-6.090304,67.413368,664
71.942444,-743.405273,-407.673828,113.333336,360.000000,-132.500000,19.950998,-14.490725,60.763039,665
35.971222,-743.405273,-419.664246,117.777779,357.777771,-127.500000,19.110956,-25.691284,51.312565,666
23.980814,-791.366882,-431.654663,117.777779,362.222229,-137.500000,20.371019,-37.171860,39.061954,667
47.961628,-767.386047,-419.664246,115.555557,357.777771,-135.000000,25.551277,-41.582081,29.261463,668
143.884888,-863.309326,-407.673828,124.444443,362.222229,-140.000000,31.011551,-39.901997,25.621281,669
131.894485,-887.290100,-407.673828,124.444443,355.555542,-137.500000,33.111656,-35.351768,21.911097,670
143.884888,-959.232544,-479.616272,124.444443,357.777771,-142.500000,35.911797,-30.591530,16.310816,671
143.884888,-971.222961,-407.673828,124.444443,357.777771,-137.500000,36.961849,-28.141407,13.370668,672
167.865707,-1007.194214,-311.750580,128.888885,360.000000,-142.500000,36.681835,-27.091354,13.160658,673
179.856110,-1043.165405,-323.740997,124.444443,357.777771,-142.500000,33.601681,-26.461323,17.010851,674
167.865707,-1079.136597,-311.750580,133.333328,362.222229,-147.500000,28.841442,-26.041302,23.941196,675
191.846512,-1031.175049,-275.779358,126.666664,355.555542,-147.500000,25.131256,-26.111305,28.771439,676
191.846512,-959.232544,-311.750580,133.333328,360.000000,-147.500000,21.281065,-28.281414,31.431572,677
191.846512,-935.251770,-311.750580,131.111115,355.555542,-142.500000,19.180960,-31.851593,30.661533,678
143.884888,-983.213379,-311.750580,137.777771,355.555542,-147.500000,20.721037,-36.191811,20.021002,679
179.856110,-923.261353,-299.760193,133.333328,351.111115,-147.500000,19.250963,-38.501926,11.410571,680
191.846512,-815.347656,-263.788971,133.333328,357.777771,-152.500000,14.700735,-41.442074,7.770389,681
191.846512,-863.309326,-251.798553,133.333328,353.333344,-150.000000,9.170459,-47.042351,9.310466,682
143.884888,-887.290100,-311.750580,140.000000,353.333344,-155.000000,5.740287,-56.492825,13.720686,683
179.856110,-899.280518,-275.779358,135.555557,346.666656,-157.500000,5.040252,-67.063354,21.561079,684
191.846512,-791.366882,-287.769775,137.777771,351.111115,-162.500000,5.810291,-72.313614,24.851242,685
179.856110,-779.376465,-239.808136,137.777771,346.666656,-162.500000,7.000350,-80.084007,29.471474,686
191.846512,-863.309326,-191.846512,140.000000,346.666656,-167.500000,1.120056,-94.574730,26.321316,687
179.856110,-815.347656,-191.846512,137.777771,344.444458,-170.000000,-5.810291,-109.555481,22.191111,688
-23.980814,-71.942444,-983.213379,144.444443,346.666656,-177.500000,-9.520476,-116.485825,21.281065,689
83.932854,-719.424438,-347.721802,144.444443,342.222229,-172.500000,2.240112,-92.684639,41.092056,690
167.865707,-1103.117432,-215.827332,142.222229,342.222229,-182.500000,-2.590130,-94.224709,38.501926,691
143.884888,-1151.079102,-239.808136,144.444443,335.555542,-192.500000,-7.210361,-105.285263,24.431221,692
47.961628,-983.213379,-287.769775,148.888885,333.333344,-197.500000,-3.500175,-96.394821,28.841442,693
71.942444,-1043.165405,-239.808136,142.222229,331.111115,-192.500000,-2.730137,-85.334267,37.311867,694
119.904068,-1079.136597,-239.808136,153.333328,340.000000,-202.500000,-1.260063,-75.533775,42.632133,695
83.932854,-1091.127075,-239.808136,146.666672,328.888885,-202.500000,0.980049,-63.983200,46.132309,696
47.961628,-1007.194214,-215.827332,157.777771,337.777771,-205.000000,0.000000,-58.522926,50.472523,697
131.894485,-971.222961,-215.827332,157.777771,324.444458,-202.500000,-1.680084,-48.372417,51.522575,698
191.846512,-959.232544,-191.846512,157.777771,328.888885,-205.000000,-3.220161,-39.131958,50.892544,699
191.846512,-899.280518,-191.846512,157.777771,324.444458,-205.000000,-3.220161,-33.881695,46.832340,700
191.846512,-887.290100,-215.827332,162.222229,324.444458,-215.000000,-3.080154,-32.621632,37.871895,701
191.846512,-875.299744,-191.846512,160.000000,320.000000,-210.000000,-4.340217,-23.661182,24.991249,702
191.846512,-887.290100,-167.865707,164.444443,328.888885,-212.500000,-6.370318,-21.211061,15.610781,703
155.875290,-875.299744,-131.894485,164.444443,320.000000,-212.500000,-7.980399,-20.161009,13.440672,704
95.923256,-719.424438,191.846512,166.666672,324.444458,-210.000000,20.511026,35.631783,75.253761,705
395.683441,-863.309326,-47.961628,168.888885,320.000000,-207.500000,12.250612,40.882046,69.653481,706
311.750580,-1414.868042,-167.865707,171.111115,322.222229,-210.000000,27.371368,33.531677,32.201611,707
0.000000,-1139.088623,-143.884888,173.333328,322.222229,-207.500000,36.681835,23.171160,9.450473,708
-167.865707,-983.213379,-71.942444,177.777771,326.666656,-207.500000,27.651382,15.680784,19.530977,709
47.961628,-887.290100,-203.836914,168.888885,313.333344,-202.500000,21.211061,7.770389,27.161358,710
143.884888,-767.386047,-215.827332,177.777771,324.444458,-207.500000,22.401121,7.280364,34.371719,711
119.904068,-815.347656,-203.836914,177.777771,317.777771,-205.000000,34.021702,18.620932,34.441723,712
95.923256,-839.328491,-239.808136,182.222229,322.222229,-200.000000,41.022053,23.171160,32.691635,713
143.884888,-899.280518,-155.875290,177.777771,313.333344,-195.000000,44.312218,16.240812,27.441372,714
215.827332,-839.328491,-239.808136,182.222229,322.222229,-205.000000,43.122158,14.280714,22.051104,715
167.865707,-887.290100,-191.846512,186.666672,317.777771,-197.500000,38.991951,17.500875,21.281065,716
167.865707,-863.309326,-215.827332,186.666672,320.000000,-195.000000,33.391670,21.701086,23.661182,717
107.913666,-887.290100,-167.865707,188.888885,313.333344,-192.500000,32.341618,28.141407,27.861393,718
23.980814,-911.270935,-215.827332,191.111115,322.222229,-192.500000,28.351418,32.481625,29.051453,719
11.990407,-935.251770,-227.817734,188.888885,311.111115,-187.500000,26.531326,36.051804,31.291565,720
-23.980814,-959.232544,-143.884888,195.555557,320.000000,-195.000000,21.631083,40.182011,32.411621,721
-35.971222,-983.213379,-155.875290,193.333328,315.555542,-187.500000,19.600981,40.602032,33.741688,722
-71.942444,-935.251770,-215.827332,195.555557,320.000000,-190.000000,10.710536,31.921597,35.771790,723
-107.913666,-851.318909,-227.817734,200.000000,313.333344,-187.500000,-1.330067,7.630382,40.112007,724
-23.980814,-863.309326,-263.788971,200.000000,315.555542,-182.500000,-5.670284,-11.060554,49.282463,725
-23.980814,-863.309326,-215.827332,200.000000,306.666656,-182.500000,-9.520476,-19.600981,52.712635,726
-47.961628,-959.232544,-215.827332,206.666672,313.333344,-187.500000,-8.120406,-26.601330,50.122505,727
-119.904068,-959.232544,-227.817734,202.222229,306.666656,-187.500000,-7.910396,-38.921947,48.932446,728
-131.894485,-1079.136597,-263.788971,206.666672,313.333344,-192.500000,-10.150508,-47.882393,50.892544,729
-71.942444,-1175.059937,-263.788971,206.666672,302.222229,-192.500000,-12.880644,-49.422470,50.822540,730
-59.952034,-1127.098267,-215.827332,211.111115,308.888885,-195.000000,-13.790689,-49.772488,50.332516,731
-383.693024,-1127.098267,-287.769775,208.888885,300.000000,-197.500000,-16.100805,-50.192509,52.292614,732
-155.875290,-1019.184631,-215.827332,213.333328,300.000000,-197.500000,-19.320967,-47.812389,61.043053,733
-119.904068,-887.290100,-215.827332,217.777771,293.333344,-197.500000,-18.200911,-49.982498,58.452923,734
-71.942444,-923.261353,-179.856110,220.000000,302.222229,-207.500000,-16.100805,-55.512775,57.122856,735
95.923256,-911.270935,-191.846512,220.000000,291.111115,-205.000000,-22.401121,-63.353168,59.222961,736
95.923256,-863.309326,-191.846512,224.444443,291.111115,-210.000000,-27.861393,-63.773190,48.722435,737
95.923256,-863.309326,-191.846512,220.000000,286.666656,-207.500000,-31.151558,-62.303116,41.022053,738
119.904068,-899.280518,-191.846512,224.444443,291.111115,-215.000000,-35.071754,-63.913197,36.821842,739
-71.942444,-959.232544,-239.808136,224.444443,282.222229,-215.000000,-37.171860,-67.623383,36.331818,740
-23.980814,-959.232544,-215.827332,224.444443,284.444458,-220.000000,-37.521877,-70.073502,38.431923,741
23.980814,-983.213379,-215.827332,226.666672,282.222229,-222.500000,-38.921947,-66.083305,36.821842,742
83.932854,-1031.175049,-203.836914,224.444443,280.000000,-230.000000,-36.751839,-66.713333,29.821491,743
-143.884888,-1079.136597,-287.769775,224.444443,271.111115,-227.500000,-30.591530,-63.843193,19.810991,744
-167.865707,-1055.155884,-263.788971,226.666672,277.777771,-235.000000,-23.171160,-52.012600,18.410921,745
-167.865707,-1031.175049,-263.788971,226.666672,273.333344,-227.500000,-14.770739,-48.862442,17.990900,746
-155.875290,-995.203796,-275.779358,224.444443,275.555542,-237.500000,-10.500525,-48.792439,16.310816,747
-119.904068,-1055.155884,-191.846512,226.666672,266.666656,-235.000000,-0.770038,-50.262512,11.480575,748
-83.932854,-1043.165405,-239.808136,228.888885,273.333344,-240.000000,9.450473,-58.732937,9.940497,749
-95.923256,-1031.175049,-215.827332,226.666672,268.888885,-237.500000,19.390970,-62.233112,13.790689,750
-83.932854,-1007.194214,-203.836914,231.111115,268.888885,-245.000000,25.061253,-55.582779,17.640882,751
0.000000,-1055.155884,-239.808136,228.888885,262.222229,-242.500000,27.511375,-51.522575,19.740988,752
-11.990407,-1031.175049,-203.836914,228.888885,264.444458,-250.000000,32.761639,-40.532028,17.990900,753
-23.980814,-1031.175049,-143.884888,226.666672,255.555557,-245.000000,35.281765,-31.291565,16.100805,754
11.990407,-1019.184631,-143.884888,231.111115,264.444458,-247.500000,35.981800,-19.880995,12.810640,755
71.942444,-1151.079102,-71.942444,231.111115,257.777771,-240.000000,34.021702,-8.960448,5.180259,756
71.942444,-1115.107910,-71.942444,233.333328,264.444458,-245.000000,29.611481,-4.060203,-2.030102,757
119.904068,-1103.117432,0.000000,237.777771,262.222229,-242.500000,22.541128,-3.080154,-4.550228,758
155.875290,-1127.098267,11.990407,233.333328,260.000000,-242.500000,17.710886,-1.960098,-4.760238,759
191.846512,-1223.021484,23.980814,231.111115,255.555557,-237.500000,7.980399,-1.330067,-3.920196,760
191.846512,-1235.011963,23.980814,235.555557,262.222229,-242.500000,-2.240112,1.120056,-7.840392,761
-23.980814,-1199.040771,-47.961628,231.111115,253.333328,-240.000000,-11.760588,-0.910046,-12.460623,762
-11.990407,-1199.040771,-107.913666,233.333328,262.222229,-245.000000,-19.180960,6.930346,-9.310466,763
47.961628,-1175.059937,-47.961628,226.666672,255.555557,-240.000000,-22.681135,2.380119,-14.910746,764
-23.980814,-1091.127075,-35.971222,231.111115,260.000000,-247.500000,-29.541477,-7.910396,-18.970949,765
-47.961628,-983.213379,-47.961628,231.111115,255.555557,-240.000000,-38.431923,-18.550928,-15.120756,766
-47.961628,-983.213379,-59.952034,231.111115,255.555557,-245.000000,-43.962200,-29.191460,-10.220511,767
-23.980814,-1055.155884,-23.980814,222.222229,253.333328,-245.000000,-49.772488,-41.092056,-8.400420,768
0.000000,-1199.040771,-35.971222,224.444443,260.000000,-255.000000,-51.662582,-54.532726,-17.920897,769
-95.923256,-1318.944824,-143.884888,220.000000,251.111115,-247.500000,-46.272316,-62.933147,-33.251663,770
-167.865707,-1282.973511,-191.846512,226.666672,257.777771,-255.000000,-42.632133,-62.373119,-36.401821,771
-239.808136,-1223.021484,-191.846512,215.555557,251.111115,-252.500000,-33.531677,-49.772488,-32.831642,772
-191.846512,-1175.059937,-191.846512,220.000000,257.777771,-260.000000,-27.441372,-34.091705,-21.071054,773
-191.846512,-1151.079102,-215.827332,217.777771,248.888885,-260.000000,-21.001051,-22.891146,-12.880644,774
-203.836914,-1115.107910,-203.836914,215.555557,253.333328,-265.000000,-12.810640,-20.371019,-9.170459,775
-191.846512,-1031.175049,-215.827332,215.555557,251.111115,-260.000000,-3.500175,-21.491076,-7.840392,776
-155.875290,-995.203796,-191.846512,217.777771,253.333328,-260.000000,4.340217,-21.841093,-5.250263,777
-119.904068,-935.251770,-143.884888,215.555557,244.444443,-262.500000,8.890445,-24.501225,2.450123,778
-95.923256,-935.251770,-143.884888,217.777771,248.888885,-262.500000,8.960448,-27.441372,13.930696,779
-143.884888,-1007.194214,-71.942444,217.777771,244.444443,-257.500000,9.730487,-31.781590,23.941196,780
-35.971222,-1007.194214,-83.932854,222.222229,246.666672,-265.000000,8.050403,-40.602032,35.001751,781
167.865707,-1103.117432,-71.942444,220.000000,244.444443,-265.000000,5.390270,-42.632133,35.001751,782
143.884888,-1235.011963,-47.961628,220.000000,246.666672,-267.500000,1.960098,-41.932098,25.971298,783
167.865707,-1534.772095,-119.904068,217.777771,240.000000,-265.000000,-0.070004,-37.731888,17.500875,784
143.884888,-1546.762573,-83.932854,224.444443,244.444443,-272.500000,0.630032,-31.151558,-8.260413,785
0.000000,-1438.848877,-47.961628,217.777771,235.555557,-265.000000,1.750087,-24.151207,-29.891495,786
-11.990407,-1402.877686,-47.961628,220.000000,244.444443,-275.000000,-2.870144,-16.170809,-34.861744,787
-23.980814,-1199.040771,-23.980814,215.555557,242.222229,-265.000000,-9.310466,-12.880644,-31.431572,788
-23.980814,-1115.107910,-23.980814,220.000000,248.888885,-275.000000,-13.020651,-12.810640,-26.181309,789
-47.961628,-959.232544,0.000000,213.333328,237.777771,-267.500000,-16.170809,-14.630732,-20.651033,790
-83.932854,-971.222961,-23.980814,217.777771,242.222229,-275.000000,-21.141058,-17.500875,-21.701086,791
-167.865707,-1031.175049,-95.923256,211.111115,246.666672,-272.500000,-22.331118,-17.990900,-27.931396,792
-179.856110,-971.222961,-83.932854,213.333328,242.222229,-272.500000,-19.600981,-20.301016,-32.061604,793
-95.923256,-983.213379,-71.942444,211.111115,240.000000,-275.000000,-19.390970,-25.061253,-36.961849,794
-95.923256,-1019.184631,-71.942444,208.888885,251.111115,-280.000000,-16.520826,-23.731186,-38.641933,795
-119.904068,-1127.098267,-119.904068,206.666672,242.222229,-275.000000,-13.090654,-21.561079,-38.781940,796
-71.942444,-1055.155884,-83.932854,204.444443,244.444443,-280.000000,-5.460273,-18.410921,-34.511726,797
-71.942444,-1007.194214,-23.980814,202.222229,240.000000,-272.500000,-0.840042,-19.950998,-29.331467,798
-59.952034,-995.203796,-11.990407,206.666672,244.444443,-280.000000,-0.490025,-19.110956,-24.921246,799
0.000000,-983.213379,23.980814,202.222229,240.000000,-275.000000,-0.700035,-17.920897,-19.740988,800
23.980814,-959.232544,23.980814,200.000000,242.222229,-277.500000,-1.400070,-16.170809,-16.940847,801
47.961628,-911.270935,23.980814,202.222229,240.000000,-272.500000,-4.200210,-16.450823,-17.360868,802
23.980814,-935.251770,0.000000,197.777771,244.444443,-282.500000,-5.250263,-21.071054,-14.210711,803
-23.980814,-1007.194214,-47.961628,200.000000,237.777771,-282.500000,-6.930346,-23.101156,-11.690584,804
-23.980814,-1007.194214,-59.952034,204.444443,242.222229,-285.000000,-8.120406,-21.421072,-9.590480,805
-23.980814,-1103.117432,-23.980814,200.000000,235.555557,-285.000000,-8.470424,-19.670984,-4.550228,806
-23.980814,-1055.155884,-23.980814,200.000000,244.444443,-285.000000,-10.500525,-18.620932,1.470073,807
0.000000,-1031.175049,0.000000,202.222229,237.777771,-280.000000,-11.200561,-16.800840,5.180259,808
71.942444,-1007.194214,23.980814,202.222229,242.222229,-282.500000,-13.790689,-15.330767,7.210361,809
23.980814,-959.232544,23.980814,202.222229,242.222229,-287.500000,-15.820791,-16.590830,10.850543,810
203.836914,-983.213379,47.961628,197.777771,242.222229,-287.500000,-18.060904,-19.670984,7.910396,811
95.923256,-935.251770,95.923256,200.000000,233.333328,-287.500000,-20.511026,-19.810991,3.780189,812
119.904068,-935.251770,155.875290,202.222229,240.000000,-287.500000,-24.361217,-15.330767,8.820441,813
0.000000,-959.232544,-23.980814,193.333328,233.333328,-287.500000,-31.501575,-21.841093,7.490375,814
0.000000,-959.232544,0.000000,200.000000,240.000000,-295.000000,-27.931396,-26.111305,-1.470073,815
-143.884888,-839.328491,0.000000,195.555557,235.555557,-287.500000,-25.131256,-25.201260,-2.380119,816
-119.904068,-935.251770,-47.961628,200.000000,237.777771,-295.000000,-24.011200,-25.971298,-3.640182,817
-167.865707,-575.539551,71.942444,195.555557,233.333328,-290.000000,-12.950647,-12.600630,3.290164,818
-95.923256,-719.424438,-35.971222,202.222229,240.000000,-295.000000,-11.620582,-6.230311,16.380819,819
0.000000,-887.290100,0.000000,197.777771,231.111115,-290.000000,-7.700385,-1.050053,15.400770,820
11.990407,-947.242188,-35.971222,202.222229,237.777771,-292.500000,-5.670284,9.590480,12.110605,821
167.865707,-1199.040771,0.000000,195.555557,231.111115,-292.500000,-2.030102,20.721037,4.970249,822
-47.961628,-1211.031128,-23.980814,200.000000,240.000000,-295.000000,4.970249,30.241512,-3.920196,823
-119.904068,-1318.944824,-71.942444,195.555557,233.333328,-290.000000,9.170459,38.291916,-8.050403,824
-155.875290,-1282.973511,-23.980814,195.555557,240.000000,-287.500000,13.440672,42.772141,-7.560378,825
-47.961628,-1175.059937,-23.980814,202.222229,240.000000,-287.500000,10.500525,37.101856,-6.160308,826
-47.961628,-1139.088623,-23.980814,193.333328,240.000000,-287.500000,5.320266,28.281414,-6.790339,827
-23.980814,-1055.155884,0.000000,197.777771,237.777771,-280.000000,1.330067,17.080854,-10.080504,828
-35.971222,-1019.184631,0.000000,202.222229,240.000000,-282.500000,-4.060203,4.900245,-12.180609,829
-71.942444,-1031.175049,-95.923256,197.777771,237.777771,-282.500000,-4.340217,0.770038,-11.970598,830
-59.952034,-1031.175049,-83.932854,200.000000,240.000000,-285.000000,-0.630032,1.750087,-8.120406,831
0.000000,-983.213379,-95.923256,197.777771,237.777771,-280.000000,0.280014,0.770038,-6.790339,832
-11.990407,-983.213379,-83.932854,200.000000,244.444443,-287.500000,0.000000,-1.470073,-5.950297,833
47.961628,-935.251770,0.000000,197.777771,237.777771,-280.000000,-1.750087,-5.670284,-4.270214,834
95.923256,-935.251770,-11.990407,195.555557,237.777771,-285.000000,-4.200210,-11.410571,-7.910396,835
167.865707,-911.270935,0.000000,191.111115,237.777771,-285.000000,-8.050403,-18.620932,-14.770739,836
167.865707,-875.299744,-23.980814,195.555557,242.222229,-290.000000,-10.080504,-22.401121,-24.151207,837
143.884888,-911.270935,-23.980814,191.111115,240.000000,-285.000000,-13.440672,-24.991249,-30.241512,838
143.884888,-947.242188,-11.990407,191.111115,240.000000,-292.500000,-16.660833,-27.581379,-34.931747,839
47.961628,-887.290100,0.000000,191.111115,233.333328,-287.500000,-18.550928,-28.981449,-35.211761,840
-119.904068,-887.290100,0.000000,191.111115,242.222229,-290.000000,-20.581030,-26.531326,-29.821491,841
-119.904068,-863.309326,-215.827332,188.888885,231.111115,-287.500000,-23.731186,-30.661533,-24.851242,842
-179.856110,-839.328491,-107.913666,188.888885,240.000000,-292.500000,-17.640882,-26.671333,-16.100805,843
-95.923256,-911.270935,-143.884888,191.111115,235.555557,-292.500000,-15.330767,-28.141407,-11.270564,844
-107.913666,-923.261353,-95.923256,186.666672,242.222229,-297.500000,-11.480575,-25.621281,-19.040953,845
-167.865707,-1031.175049,-47.961628,186.666672,231.111115,-295.000000,-2.730137,-20.441023,-22.331118,846
-119.904068,-1079.136597,-23.980814,182.222229,235.555557,-295.000000,3.220161,-13.930696,-25.621281,847
215.827332,-1270.983154,71.942444,180.000000,233.333328,-290.000000,7.770389,-23.661182,-9.100455,848
11.990407,-983.213379,167.865707,188.888885,240.000000,-300.000000,7.630382,0.630032,5.250263,849
215.827332,-1199.040771,167.865707,182.222229,233.333328,-295.000000,-7.910396,4.690235,5.320266,850
95.923256,-1031.175049,47.961628,184.444443,233.333328,-295.000000,-4.410221,8.260413,13.510675,851
-47.961628,-983.213379,-71.942444,184.444443,235.555557,-292.500000,2.940147,14.910746,15.120756,852
-35.971222,-983.213379,-23.980814,186.666672,237.777771,-297.500000,5.530277,17.570879,11.690584,853
-23.980814,-935.251770,95.923256,184.444443,233.333328,-290.000000,7.770389,28.071404,14.770739,854
-35.971222,-983.213379,95.923256,191.111115,240.000000,-292.500000,4.970249,28.841442,19.740988,855
0.000000,-1031.175049,191.846512,184.444443,235.555557,-290.000000,1.820091,28.701435,21.981100,856
131.894485,-1019.184631,107.913666,191.111115,242.222229,-292.500000,-0.840042,27.721386,19.180960,857
0.000000,-959.232544,71.942444,186.666672,235.555557,-292.500000,-1.820091,29.891495,17.080854,858
155.875290,-983.213379,23.980814,188.888885,240.000000,-287.500000,-4.200210,32.691635,14.840742,859
23.980814,-935.251770,-23.980814,188.888885,240.000000,-287.500000,-6.300315,34.721737,13.650682,860
23.980814,-959.232544,-35.971222,191.111115,240.000000,-290.000000,-7.490375,32.551628,15.820791,861
0.000000,-959.232544,-23.980814,188.888885,237.777771,-282.500000,-7.210361,26.601330,16.800840,862
-11.990407,-1007.194214,-59.952034,191.111115,242.222229,-287.500000,-8.610431,20.651033,15.960798,863
-47.961628,-959.232544,-95.923256,188.888885,237.777771,-280.000000,-9.310466,14.770739,14.420721,864
-23.980814,-995.203796,-95.923256,193.333328,244.444443,-290.000000,-9.870494,8.050403,10.850543,865
0.000000,-1031.175049,-95.923256,191.111115,237.777771,-277.500000,-9.240462,0.560028,6.230311,866
11.990407,-995.203796,-83.932854,195.555557,242.222229,-287.500000,-8.190410,-6.580329,3.850193,867
47.961628,-1007.194214,-47.961628,188.888885,240.000000,-282.500000,-8.330417,-10.080504,3.920196,868
35.971222,-983.213379,11.990407,191.111115,240.000000,-287.500000,-8.470424,-10.920547,5.950297,869
23.980814,-1007.194214,-23.980814,193.333328,240.000000,-285.000000,-9.030452,-10.990550,6.580329,870
107.913666,-1019.184631,-47.961628,193.333328,242.222229,-290.000000,-8.820441,-9.800490,6.580329,871
-23.980814,-959.232544,47.961628,191.111115,233.333328,-285.000000,-4.340217,-2.030102,-2.870144,872
-83.932854,-971.222961,0.000000,193.333328,242.222229,-290.000000,-7.770389,-4.830242,3.080154,873
-47.961628,-1007.194214,0.000000,191.111115,233.333328,-287.500000,-11.760588,-8.120406,7.140357,874
-23.980814,-983.213379,-11.990407,193.333328,240.000000,-290.000000,-12.110605,-7.350368,6.020301,875
-23.980814,-935.251770,0.000000,193.333328,233.333328,-287.500000,-12.320616,-6.440322,4.830242,876
0.000000,-1007.194214,-11.990407,188.888885,235.555557,-290.000000,-11.060554,-5.530277,4.060203,877
-23.980814,-1031.175049,-23.980814,188.888885,240.000000,-290.000000,-9.800490,-6.090304,0.840042,878
-35.971222,-1019.184631,-11.990407,191.111115,240.000000,-290.000000,-8.470424,-6.440322,-2.590130,879
0.000000,-959.232544,-23.980814,193.333328,231.111115,-287.500000,-7.910396,-5.740287,-6.020301,880
0.000000,-983.213379,-23.980814,193.333328,240.000000,-292.500000,-7.910396,-3.360168,-6.440322,881
23.980814,-983.213379,-23.980814,191.111115,233.333328,-285.000000,-7.980399,-2.170109,-4.760238,882
35.971222,-995.203796,0.000000,186.666672,242.222229,-290.000000,-7.280364,-0.210010,-3.850193,883
0.000000,-935.251770,0.000000,188.888885,233.333328,-290.000000,-9.450473,3.500175,-1.610080,884
0.000000,-983.213379,-35.971222,188.888885,240.000000,-290.000000,-11.130557,7.280364,0.770038,885
71.942444,-1007.194214,0.000000,188.888885,237.777771,-290.000000,-9.660483,8.750438,1.680084,886
11.990407,-983.213379,-11.990407,191.111115,240.000000,-290.000000,-7.980399,8.470424,2.870144,887
47.961628,-1031.175049,-95.923256,186.666672,237.777771,-287.500000,-6.230311,7.140357,2.170109,888
0.000000,-995.203796,-59.952034,191.111115,242.222229,-292.500000,-4.970249,5.040252,1.050053,889
0.000000,-983.213379,0.000000,186.666672,233.333328,-287.500000,-3.570179,3.430171,1.190060,890
0.000000,-995.203796,-11.990407,188.888885,240.000000,-292.500000,-4.480224,3.570179,0.140007,891
-23.980814,-959.232544,0.000000,188.888885,237.777771,-285.000000,-7.280364,3.990200,0.700035,892
-11.990407,-971.222961,-11.990407,186.666672,242.222229,-292.500000,-10.990550,4.760238,0.350018,893
0.000000,-983.213379,-23.980814,188.888885,242.222229,-287.500000,-16.030802,5.740287,-0.630032,894
-23.980814,-983.213379,-47.961628,186.666672,240.000000,-290.000000,-18.480925,7.070354,-1.400070,895
23.980814,-767.386047,0.000000,184.444443,233.333328,-285.000000,-3.990200,4.480224,-7.770389,896
-11.990407,-935.251770,-23.980814,191.111115,242.222229,-290.000000,-8.890445,10.920547,11.830591,897
0.000000,-1079.136597,47.961628,186.666672,233.333328,-285.000000,-11.620582,11.060554,6.300315,898
0.000000,-1031.175049,0.000000,191.111115,242.222229,-290.000000,-10.360518,11.340568,4.550228,899
0.000000,-1007.194214,-47.961628,188.888885,237.777771,-287.500000,-7.560378,10.290515,3.360168,900
-11.990407,-959.232544,-59.952034,188.888885,240.000000,-292.500000,-4.130207,8.540427,-0.140007,901
0.000000,-1031.175049,-23.980814,191.111115,242.222229,-285.000000,-2.870144,5.600280,-4.130207,902
0.000000,-1031.175049,-47.961628,188.888885,240.000000,-287.500000,-1.750087,5.320266,-5.950297,903
0.000000,-1031.175049,-47.961628,184.444443,237.777771,-280.000000,-1.680084,5.110256,-5.250263,904
11.990407,-995.203796,-71.942444,188.888885,240.000000,-287.500000,-2.170109,4.830242,-4.970249,905
11.990407,-1151.079102,-47.961628,182.222229,237.777771,-285.000000,-1.610080,3.850193,-4.480224,906
0.000000,-959.232544,-47.961628,188.888885,244.444443,-292.500000,-1.330067,2.380119,-4.900245,907
23.980814,-1031.175049,-47.961628,186.666672,242.222229,-282.500000,-0.560028,0.420021,-7.350368,908
11.990407,-995.203796,-35.971222,188.888885,244.444443,-287.500000,-0.070004,-1.680084,-9.310466,909
0.000000,-1007.194214,-71.942444,186.666672,240.000000,-280.000000,-0.070004,-1.820091,-9.380469,910
0.000000,-1007.194214,-47.961628,184.444443,242.222229,-290.000000,-0.140007,-1.330067,-9.590480,911
0.000000,-983.213379,-47.961628,188.888885,240.000000,-287.500000,-0.980049,-0.070004,-9.730487,912
0.000000,-959.232544,-35.971222,184.444443,244.444443,-287.500000,-1.750087,2.240112,-8.190410,913
23.980814,-959.232544,-23.980814,184.444443,240.000000,-282.500000,-2.240112,3.290164,-8.050403,914
0.000000,-983.213379,-35.971222,188.888885,244.444443,-287.500000,-3.150157,4.480224,-10.220511,915
0.000000,-959.232544,-47.961628,180.000000,240.000000,-282.500000,-4.480224,6.090304,-10.220511,916
11.990407,-971.222961,-59.952034,182.222229,246.666672,-290.000000,-5.810291,7.840392,-8.400420,917
23.980814,-1031.175049,-47.961628,184.444443,237.777771,-285.000000,-6.720336,9.590480,-6.300315,918
11.990407,-1031.175049,-47.961628,182.222229,242.222229,-290.000000,-6.790339,9.730487,-5.390270,919
-23.980814,-959.232544,-47.961628,180.000000,244.444443,-285.000000,-7.420371,10.500525,-5.180259,920
11.990407,-995.203796,-23.980814,184.444443,251.111115,-290.000000,-7.980399,10.080504,-5.180259,921
23.980814,-1031.175049,-71.942444,180.000000,240.000000,-282.500000,-7.560378,9.660483,-5.320266,922
0.000000,-1007.194214,-35.971222,182.222229,246.666672,-287.500000,-9.870494,10.080504,-5.530277,923
23.980814,-1031.175049,-71.942444,177.777771,242.222229,-282.500000,-10.570529,10.920547,-5.320266,924
35.971222,-995.203796,-35.971222,180.000000,246.666672,-290.000000,-4.130207,8.190410,-2.450123,925
0.000000,-1007.194214,-71.942444,182.222229,242.222229,-280.000000,-0.350018,5.180259,-3.150157,926
23.980814,-1007.194214,-59.952034,182.222229,251.111115,-287.500000,2.310116,3.640182,-4.620231,927
23.980814,-959.232544,0.000000,180.000000,244.444443,-282.500000,3.080154,2.520126,-4.620231,928
23.980814,-983.213379,-11.990407,177.777771,246.666672,-287.500000,3.360168,1.470073,-4.410221,929
23.980814,-1031.175049,-23.980814,180.000000,240.000000,-280.000000,3.220161,1.820091,-3.290164,930
0.000000,-1019.184631,-47.961628,180.000000,244.444443,-287.500000,2.170109,1.960098,-1.540077,931
0.000000,-983.213379,-95.923256,175.555557,242.222229,-285.000000,1.820091,1.400070,-1.330067,932
11.990407,-1019.184631,-59.952034,184.444443,244.444443,-285.000000,0.770038,0.280014,-0.910046,933
23.980814,-1007.194214,-71.942444,177.777771,237.777771,-280.000000,0.490025,-0.140007,-0.700035,934
23.980814,-983.213379,-59.952034,182.222229,251.111115,-287.500000,0.070004,0.140007,-0.070004,935
23.980814,-983.213379,-23.980814,182.222229,244.444443,-277.500000,-0.770038,1.050053,1.190060,936
11.990407,-1007.194214,-59.952034,180.000000,246.666672,-280.000000,-0.350018,1.960098,3.080154,937
0.000000,-1007.194214,-119.904068,177.777771,242.222229,-282.500000,-0.910046,1.610080,1.050053,938
23.980814,-995.203796,-47.961628,180.000000,248.888885,-285.000000,-1.190060,0.980049,-0.910046,939
-23.980814,-1007.194214,-47.961628,180.000000,244.444443,-282.500000,-1.680084,0.770038,-3.220161,940
0.000000,-995.203796,-35.971222,184.444443,248.888885,-285.000000,-2.380119,1.750087,-4.690235,941
-23.980814,-1007.194214,-71.942444,180.000000,242.222229,-280.000000,-2.870144,2.940147,-4.830242,942
-11.990407,-983.213379,-59.952034,180.000000,244.444443,-280.000000,-1.820091,3.990200,-5.740287,943
0.000000,-959.232544,-23.980814,180.000000,244.444443,-280.000000,-1.820091,4.130207,-6.160308,944
23.980814,-959.232544,-23.980814,180.000000,248.888885,-282.500000,-1.120056,5.180259,-7.420371,945
0.000000,-1031.175049,-71.942444,182.222229,246.666672,-280.000000,1.890095,5.950297,-7.420371,946
0.000000,-983.213379,-35.971222,177.777771,246.666672,-282.500000,4.900245,7.840392,-8.400420,947
0.000000,-1031.175049,-71.942444,177.777771,246.666672,-280.000000,7.070354,8.960448,-8.400420,948
0.000000,-995.203796,-47.961628,184.444443,251.111115,-282.500000,8.470424,10.080504,-7.280364,949
0.000000,-983.213379,-47.961628,180.000000,244.444443,-280.000000,9.030452,11.760588,-7.210361,950
23.980814,-971.222961,-35.971222,180.000000,244.444443,-280.000000,9.310466,13.230661,-5.390270,951
23.980814,-1007.194214,-95.923256,175.555557,242.222229,-280.000000,8.330417,13.790689,-3.430171,952
47.961628,-983.213379,-95.923256,180.000000,251.111115,-280.000000,7.210361,14.140707,-2.240112,953
47.961628,-1055.155884,-71.942444,177.777771,246.666672,-275.000000,5.950297,13.300665,-1.260063,954
35.971222,-1019.184631,-107.913666,180.000000,253.333328,-282.500000,4.060203,11.550578,-1.260063,955
0.000000,-983.213379,-47.961628,177.777771,246.666672,-277.500000,3.290164,10.290515,-1.190060,956
0.000000,-995.203796,-95.923256,180.000000,255.555557,-280.000000,1.680084,7.840392,-0.420021,957
0.000000,-959.232544,-95.923256,177.777771,248.888885,-275.000000,0.560028,4.830242,-0.210010,958
11.990407,-983.213379,-71.942444,182.222229,255.555557,-280.000000,-1.330067,2.030102,-0.770038,959
-23.980814,-959.232544,-47.961628,180.000000,251.111115,-272.500000,-2.520126,-0.840042,-1.400070,960
0.000000,-959.232544,-59.952034,180.000000,251.111115,-277.500000,-3.990200,-3.220161,-0.630032,961
0.000000,-1007.194214,-47.961628,180.000000,248.888885,-280.000000,-5.040252,-4.550228,-1.400070,962
11.990407,-983.213379,-83.932854,177.777771,253.333328,-280.000000,-5.530277,-4.550228,-1.820091,963
47.961628,-983.213379,-287.769775,177.777771,242.222229,-277.500000,-5.530277,-4.620231,-2.030102,964
23.980814,-1007.194214,-119.904068,186.666672,253.333328,-282.500000,-5.740287,-3.850193,-2.660133,965
-959.232544,0.000000,182.222229,253.333328,-280.000000,-5.810291,-0.210010,-2.240112,0.000000,966
23.980814,-959.232544,0.000000,182.222229,253.333328,-280.000000,-5.810291,-0.210010,-2.240112,967
23.980814,-935.251770,-47.961628,177.777771,246.666672,-277.500000,-5.390270,0.490025,-2.870144,968
11.990407,-995.203796,-59.952034,182.222229,253.333328,-277.500000,-4.900245,1.960098,-2.870144,969
0.000000,-1007.194214,-95.923256,180.000000,251.111115,-275.000000,-4.130207,1.820091,-4.620231,970
11.990407,-983.213379,-83.932854,177.777771,251.111115,-280.000000,-3.710186,1.050053,-4.550228,971
47.961628,-983.213379,-23.980814,175.555557,248.888885,-277.500000,-2.730137,0.980049,-4.340217,972
23.980814,-995.203796,-35.971222,175.555557,251.111115,-282.500000,-2.730137,0.770038,-4.130207,973
0.000000,-983.213379,-23.980814,173.333328,244.444443,-277.500000,-1.890095,-0.630032,-3.080154,974
23.980814,-983.213379,-71.942444,180.000000,251.111115,-280.000000,-1.890095,-1.400070,-1.820091,975
-23.980814,-1055.155884,-71.942444,175.555557,244.444443,-277.500000,-2.590130,-2.520126,-0.280014,976
11.990407,-1007.194214,-83.932854,175.555557,255.555557,-282.500000,-1.750087,-3.220161,1.050053,977
23.980814,-1007.194214,-71.942444,180.000000,244.444443,-277.500000,-2.380119,-3.850193,3.220161,978
11.990407,-995.203796,-59.952034,182.222229,251.111115,-277.500000,-3.710186,-4.130207,4.410221,979
23.980814,-983.213379,-71.942444,177.777771,246.666672,-280.000000,-3.990200,-4.760238,5.110256,980
0.000000,-971.222961,-47.961628,180.000000,255.555557,-282.500000,-4.200210,-4.620231,5.810291,981
23.980814,-959.232544,-23.980814,175.555557,244.444443,-277.500000,-5.110256,-3.990200,5.110256,982
23.980814,-959.232544,-47.961628,180.000000,251.111115,-280.000000,-5.600280,-4.060203,4.340217,983
0.000000,-959.232544,-119.904068,175.555557,246.666672,-275.000000,-5.880294,-2.380119,3.990200,984
11.990407,-983.213379,-59.952034,182.222229,248.888885,-277.500000,-5.740287,-1.960098,2.730137,985
23.980814,-1055.155884,-23.980814,171.111115,246.666672,-277.500000,-5.740287,-1.330067,0.280014,986
11.990407,-995.203796,-47.961628,175.555557,248.888885,-280.000000,-6.300315,-0.420021,-0.630032,987
0.000000,-1007.194214,-95.923256,180.000000,248.888885,-280.000000,-11.200561,3.290164,-2.730137,988
23.980814,-983.213379,-59.952034,177.777771,251.111115,-280.000000,-7.000350,2.660133,-0.700035,989
0.000000,-983.213379,-71.942444,175.555557,244.444443,-280.000000,-3.500175,2.450123,0.280014,990
11.990407,-983.213379,-59.952034,177.777771,253.333328,-280.000000,-0.350018,3.360168,0.070004,991
0.000000,-983.213379,-71.942444,175.555557,244.444443,-277.500000,2.660133,3.010150,-2.170109,992
0.000000,-971.222961,-59.952034,180.000000,253.333328,-282.500000,4.060203,3.150157,-3.920196,993
23.980814,-959.232544,-23.980814,175.555557,244.444443,-280.000000,6.300315,3.710186,-5.040252,994
-11.990407,-971.222961,-59.952034,177.777771,248.888885,-282.500000,7.770389,4.690235,-4.130207,995
23.980814,-983.213379,-23.980814,180.000000,251.111115,-277.500000,7.910396,6.580329,-3.640182,996
11.990407,-995.203796,-35.971222,177.777771,253.333328,-277.500000,8.260413,7.490375,-2.310116,997
0.000000,-1007.194214,-23.980814,177.777771,246.666672,-275.000000,7.770389,7.910396,-1.260063,998
11.990407,-983.213379,-47.961628,182.222229,251.111115,-280.000000,7.560378,8.050403,-0.420021,999
47.961628,-1007.194214,-71.942444,175.555557,246.666672,-272.500000,6.860343,7.140357,0.280014,1000
23.980814,-983.213379,-71.942444,180.000000,253.333328,-280.000000,5.600280,5.950297,0.350018,1001
0.000000,-1007.194214,-47.961628,177.777771,244.444443,-277.500000,3.710186,4.480224,1.120056,1002
0.000000,-1007.194214,-59.952034,182.222229,246.666672,-280.000000,1.330067,3.220161,3.570179,1003
23.980814,-1007.194214,-71.942444,180.000000,248.888885,-277.500000,-0.350018,1.960098,3.710186,1004
11.990407,-995.203796,-71.942444,177.777771,251.111115,-275.000000,-0.420021,1.190060,2.030102,1005
23.980814,-1079.136597,-47.961628,175.555557,246.666672,-277.500000,-1.260063,-0.490025,1.540077,1006
23.980814,-1007.194214,-59.952034,180.000000,251.111115,-280.000000,-1.750087,-1.260063,1.400070,1007
23.980814,-959.232544,-95.923256,177.777771,244.444443,-275.000000,-2.170109,-2.100105,2.730137,1008
11.990407,-947.242188,-59.952034,180.000000,251.111115,-277.500000,-2.870144,-1.820091,2.730137,1009
0.000000,-935.251770,-23.980814,177.777771,244.444443,-275.000000,-2.170109,-1.470073,1.750087,1010
11.990407,-959.232544,-35.971222,182.222229,255.555557,-277.500000,-0.980049,0.000000,1.540077,1011
0.000000,-1031.175049,-95.923256,182.222229,244.444443,-277.500000,0.140007,0.490025,1.050053,1012
11.990407,-1019.184631,-47.961628,182.222229,253.333328,-275.000000,0.210010,1.820091,-0.070004,1013
0.000000,-1031.175049,-95.923256,182.222229,246.666672,-277.500000,1.260063,3.710186,-0.350018,1014
0.000000,-995.203796,-119.904068,180.000000,257.777771,-280.000000,2.100105,5.180259,-0.840042,1015
23.980814,-1007.194214,-47.961628,177.777771,244.444443,-272.500000,2.800140,6.020301,-1.820091,1016
11.990407,-995.203796,-47.961628,182.222229,253.333328,-277.500000,2.730137,6.510325,-2.660133,1017
23.980814,-1031.175049,-71.942444,177.777771,244.444443,-272.500000,2.870144,6.510325,-2.660133,1018
11.990407,-983.213379,-35.971222,186.666672,253.333328,-277.500000,3.150157,7.420371,-3.010150,1019
23.980814,-983.213379,-119.904068,182.222229,251.111115,-270.000000,3.500175,7.210361,-2.170109,1020
47.961628,-995.203796,-107.913666,177.777771,246.666672,-280.000000,1.540077,6.160308,-0.630032,1021
23.980814,-983.213379,-71.942444,182.222229,251.111115,-275.000000,-0.280014,4.690235,1.260063,1022
23.980814,-971.222961,-107.913666,182.222229,253.333328,-277.500000,-0.700035,2.940147,3.430171,1023
-23.980814,-1007.194214,-143.884888,177.777771,248.888885,-277.500000,-1.820091,0.140007,4.550228,1024
0.000000,-983.213379,-95.923256,182.222229,251.111115,-275.000000,-2.940147,-2.800140,4.620231,1025
0.000000,-1007.194214,-119.904068,180.000000,246.666672,-275.000000,-4.480224,-4.270214,4.970249,1026
0.000000,-983.213379,-95.923256,182.222229,253.333328,-275.000000,-6.020301,-4.410221,6.300315,1027
47.961628,-983.213379,-71.942444,180.000000,248.888885,-272.500000,-6.720336,-5.740287,5.880294,1028
23.980814,-971.222961,-71.942444,180.000000,251.111115,-275.000000,-7.140357,-6.720336,5.460273,1029
-23.980814,-1007.194214,-47.961628,180.000000,253.333328,-277.500000,-7.000350,-6.370318,5.180259,1030
-11.990407,-971.222961,-83.932854,180.000000,253.333328,-277.500000,-6.230311,-6.160308,4.200210,1031
0.000000,-1031.175049,-95.923256,182.222229,248.888885,-270.000000,-5.180259,-5.740287,2.170109,1032
11.990407,-1019.184631,-47.961628,184.444443,255.555557,-277.500000,-4.830242,-3.920196,1.120056,1033
0.000000,-1007.194214,-23.980814,177.777771,244.444443,-275.000000,-4.130207,-2.380119,0.420021,1034
0.000000,-995.203796,-35.971222,182.222229,253.333328,-277.500000,-3.220161,-0.350018,-0.210010,1035
0.000000,-935.251770,-23.980814,177.777771,248.888885,-272.500000,-2.100105,2.660133,-0.140007,1036
11.990407,-971.222961,-23.980814,182.222229,253.333328,-277.500000,-1.120056,4.620231,0.770038,1037
0.000000,-983.213379,-95.923256,180.000000,248.888885,-275.000000,-0.560028,6.230311,0.210010,1038
11.990407,-983.213379,-95.923256,180.000000,251.111115,-275.000000,0.630032,6.510325,0.420021,1039
23.980814,-959.232544,-71.942444,177.777771,248.888885,-270.000000,1.750087,6.300315,-0.070004,1040
0.000000,-1019.184631,-95.923256,180.000000,255.555557,-275.000000,2.380119,5.460273,0.280014,1041
0.000000,-1007.194214,-47.961628,180.000000,248.888885,-272.500000,2.380119,5.250263,-1.260063,1042
11.990407,-983.213379,-59.952034,184.444443,253.333328,-277.500000,2.730137,4.340217,-1.400070,1043
23.980814,-1007.194214,-71.942444,180.000000,251.111115,-275.000000,2.660133,4.060203,-1.680084,1044
11.990407,-995.203796,-83.932854,182.222229,253.333328,-275.000000,2.450123,3.430171,-1.120056,1045
23.980814,-1007.194214,-71.942444,182.222229,248.888885,-267.500000,2.380119,3.500175,-0.560028,1046
11.990407,-1007.194214,-83.932854,182.222229,251.111115,-272.500000,2.240112,3.780189,0.770038,1047
-47.961628,-1007.194214,-95.923256,177.777771,248.888885,-270.000000,2.450123,3.850193,1.470073,1048
-23.980814,-983.213379,-83.932854,182.222229,255.555557,-277.500000,3.080154,3.360168,0.210010,1049
0.000000,-983.213379,-95.923256,177.777771,246.666672,-272.500000,3.430171,3.360168,-0.420021,1050
11.990407,-995.203796,-71.942444,182.222229,251.111115,-277.500000,3.570179,4.130207,0.140007,1051
23.980814,-959.232544,-71.942444,180.000000,248.888885,-267.500000,3.010150,4.480224,-0.140007,1052
11.990407,-947.242188,-59.952034,182.222229,255.555557,-275.000000,2.590130,5.460273,0.560028,1053
0.000000,-1007.194214,-47.961628,180.000000,246.666672,-272.500000,2.170109,5.670284,2.590130,1054
23.980814,-1007.194214,-59.952034,186.666672,248.888885,-275.000000,1.610080,6.510325,3.710186,1055
23.980814,-983.213379,-47.961628,186.666672,255.555557,-272.500000,0.210010,7.280364,5.180259,1056
23.980814,-995.203796,-95.923256,184.444443,257.777771,-277.500000,0.210010,6.650332,5.740287,1057
23.980814,-983.213379,-119.904068,180.000000,248.888885,-270.000000,-0.490025,6.090304,6.160308,1058
23.980814,-983.213379,-107.913666,184.444443,253.333328,-277.500000,-1.610080,4.970249,6.230311,1059
47.961628,-1007.194214,-119.904068,177.777771,248.888885,-267.500000,-2.170109,3.780189,7.490375,1060
23.980814,-995.203796,-131.894485,188.888885,255.555557,-270.000000,-2.800140,1.960098,6.090304,1061
0.000000,-1031.175049,-95.923256,182.222229,246.666672,-272.500000,-3.080154,-0.840042,4.480224,1062
0.000000,-1007.194214,-95.923256,184.444443,251.111115,-277.500000,-3.430171,-1.960098,3.500175,1063
-47.961628,-959.232544,-47.961628,180.000000,251.111115,-275.000000,-3.150157,-2.450123,2.730137,1064
-11.990407,-971.222961,-35.971222,184.444443,255.555557,-277.500000,-1.400070,-3.570179,1.820091,1065
0.000000,-1007.194214,-71.942444,182.222229,251.111115,-270.000000,-1.190060,-3.500175,0.280014,1066
23.980814,-995.203796,-71.942444,186.666672,255.555557,-277.500000,-0.560028,-3.710186,-0.420021,1067
0.000000,-1007.194214,-71.942444,184.444443,246.666672,-270.000000,-0.420021,-3.080154,-1.680084,1068
11.990407,-995.203796,-71.942444,184.444443,255.555557,-275.000000,0.490025,-1.890095,-1.260063,1069
47.961628,-1031.175049,-95.923256,186.666672,244.444443,-270.000000,0.770038,-0.350018,-1.470073,1070
23.980814,-1019.184631,-71.942444,182.222229,248.888885,-272.500000,2.030102,1.540077,-1.120056,1071
0.000000,-983.213379,-71.942444,186.666672,251.111115,-272.500000,2.380119,3.360168,-1.260063,1072
11.990407,-983.213379,-71.942444,182.222229,251.111115,-275.000000,1.960098,5.110256,0.700035,1073
47.961628,-983.213379,-71.942444,184.444443,251.111115,-267.500000,1.960098,6.580329,3.290164,1074
35.971222,-995.203796,-95.923256,184.444443,253.333328,-272.500000,1.190060,8.050403,5.040252,1075
-23.980814,-1031.175049,-119.904068,177.777771,246.666672,-267.500000,0.770038,8.750438,6.230311,1076
0.000000,-1007.194214,-107.913666,186.666672,251.111115,-272.500000,1.120056,7.490375,5.810291,1077
0.000000,-983.213379,-119.904068,188.888885,251.111115,-267.500000,0.490025,6.720336,5.390270,1078
-11.990407,-995.203796,-71.942444,184.444443,251.111115,-275.000000,0.210010,5.460273,5.600280,1079
-23.980814,-1031.175049,-167.865707,182.222229,253.333328,-267.500000,0.070004,3.220161,5.740287,1080
11.990407,-995.203796,-107.913666,186.666672,253.333328,-272.500000,-0.350018,1.400070,5.530277,1081
-23.980814,-983.213379,-71.942444,186.666672,251.111115,-265.000000,-1.050053,-0.140007,4.760238,1082
0.000000,-959.232544,-71.942444,186.666672,251.111115,-270.000000,-2.170109,-1.540077,5.110256,1083
-23.980814,-935.251770,-143.884888,184.444443,246.666672,-265.000000,-2.590130,-3.220161,5.880294,1084
-11.990407,-947.242188,-95.923256,186.666672,255.555557,-267.500000,-3.150157,-3.430171,6.370318,1085
-23.980814,-1007.194214,-95.923256,184.444443,251.111115,-270.000000,-4.060203,-3.850193,6.370318,1086
-23.980814,-995.203796,-71.942444,188.888885,251.111115,-275.000000,-4.200210,-4.200210,5.740287,1087
0.000000,-983.213379,-71.942444,186.666672,246.666672,-265.000000,-4.970249,-3.710186,5.460273,1088
0.000000,-995.203796,-71.942444,188.888885,253.333328,-275.000000,-4.480224,-2.730137,6.370318,1089
0.000000,-1007.194214,-119.904068,186.666672,253.333328,-272.500000,-4.550228,-1.890095,6.370318,1090
11.990407,-983.213379,-71.942444,186.666672,255.555557,-277.500000,-4.270214,-1.680084,5.320266,1091
23.980814,-983.213379,-71.942444,186.666672,251.111115,-272.500000,-4.130207,-0.280014,4.760238,1092
11.990407,-1007.194214,-71.942444,191.111115,253.333328,-272.500000,-3.500175,-0.560028,3.710186,1093
23.980814,-983.213379,-95.923256,188.888885,251.111115,-267.500000,-3.710186,-0.210010,2.870144,1094
0.000000,-1007.194214,-59.952034,191.111115,253.333328,-272.500000,-2.870144,-0.070004,4.130207,1095
0.000000,-1007.194214,-95.923256,188.888885,246.666672,-267.500000,-2.240112,1.260063,5.810291,1096
11.990407,-1019.184631,-59.952034,184.444443,248.888885,-272.500000,-2.870144,1.610080,6.790339,1097
-23.980814,-959.232544,-119.904068,188.888885,251.111115,-270.000000,-3.150157,2.450123,7.280364,1098
-11.990407,-959.232544,-95.923256,191.111115,253.333328,-272.500000,-3.430171,2.590130,7.140357,1099
-23.980814,-1031.175049,-119.904068,191.111115,246.666672,-267.500000,-3.430171,2.450123,6.650332,1100
-11.990407,-983.213379,-71.942444,191.111115,253.333328,-275.000000,-9.940497,5.320266,4.620231,1101
0.000000,-983.213379,-143.884888,186.666672,248.888885,-270.000000,-6.930346,4.690235,6.090304,1102
-11.990407,-971.222961,-143.884888,188.888885,248.888885,-275.000000,-4.200210,1.890095,5.950297,1103
-23.980814,-983.213379,-119.904068,184.444443,244.444443,-267.500000,-3.570179,0.910046,4.270214,1104
-23.980814,-983.213379,-95.923256,191.111115,253.333328,-275.000000,-0.630032,-0.350018,2.310116,1105
47.961628,-983.213379,-95.923256,188.888885,251.111115,-270.000000,0.000000,-1.120056,3.360168,1106
23.980814,-995.203796,-71.942444,188.888885,251.111115,-272.500000,0.070004,0.420021,3.500175,1107
-23.980814,-1031.175049,-95.923256,188.888885,248.888885,-267.500000,-0.420021,1.330067,5.040252,1108
0.000000,-995.203796,-83.932854,191.111115,253.333328,-275.000000,-0.770038,1.330067,5.530277,1109
47.961628,-1055.155884,-71.942444,188.888885,244.444443,-265.000000,0.210010,3.710186,2.030102,1110
-71.942444,-1019.184631,-71.942444,188.888885,244.444443,-265.000000,6.440322,7.210361,-6.510325,1111
-119.904068,-983.213379,-143.884888,188.888885,246.666672,-267.500000,-1.330067,2.590130,3.990200,1112
-35.971222,-971.222961,-107.913666,188.888885,253.333328,-272.500000,-4.900245,0.630032,3.570179,1113
47.961628,-1031.175049,-95.923256,188.888885,251.111115,-267.500000,-8.190410,2.100105,2.380119,1114
0.000000,-995.203796,-107.913666,191.111115,251.111115,-270.000000,-5.390270,0.560028,2.450123,1115
0.000000,-1007.194214,-47.961628,188.888885,246.666672,-267.500000,-4.200210,0.700035,0.420021,1116
-11.990407,-983.213379,-59.952034,193.333328,253.333328,-272.500000,-3.360168,-0.350018,-0.560028,1117
71.942444,-935.251770,-95.923256,186.666672,248.888885,-267.500000,-1.820091,-0.420021,-2.590130,1118
35.971222,-995.203796,-35.971222,191.111115,255.555557,-270.000000,-0.630032,0.560028,-3.430171,1119
0.000000,-983.213379,-95.923256,188.888885,246.666672,-267.500000,-0.630032,1.680084,-3.080154,1120
0.000000,-983.213379,-71.942444,193.333328,253.333328,-272.500000,-0.420021,2.240112,-2.100105,1121
143.884888,-1007.194214,-71.942444,191.111115,244.444443,-265.000000,-1.050053,1.960098,-3.500175,1122
-35.971222,-1007.194214,-95.923256,191.111115,253.333328,-270.000000,-1.260063,0.980049,-5.530277,1123
0.000000,-1031.175049,-167.865707,191.111115,253.333328,-267.500000,-2.310116,0.350018,-6.720336,1124
-11.990407,-1019.184631,-83.932854,188.888885,253.333328,-267.500000,-2.520126,0.000000,-7.630382,1125
-23.980814,-983.213379,-47.961628,188.888885,244.444443,-267.500000,-3.080154,0.140007,-8.400420,1126
-11.990407,-971.222961,-71.942444,193.333328,253.333328,-275.000000,-3.150157,0.210010,-8.050403,1127
-23.980814,-1007.194214,-71.942444,186.666672,248.888885,-267.500000,-3.010150,0.630032,-8.680434,1128
-11.990407,-1019.184631,-119.904068,191.111115,253.333328,-272.500000,-2.730137,0.980049,-9.030452,1129
0.000000,-1007.194214,-95.923256,182.222229,244.444443,-265.000000,-2.520126,1.750087,-9.450473,1130
11.990407,-995.203796,-71.942444,186.666672,255.555557,-267.500000,-1.400070,2.380119,-9.170459,1131
47.961628,-1007.194214,-23.980814,184.444443,255.555557,-267.500000,-1.050053,4.200210,-8.750438,1132
11.990407,-995.203796,-59.952034,188.888885,257.777771,-272.500000,-0.350018,5.040252,-8.400420,1133
0.000000,-983.213379,-71.942444,182.222229,248.888885,-267.500000,-0.630032,6.020301,-7.350368,1134
-11.990407,-971.222961,-71.942444,184.444443,255.555557,-275.000000,-0.770038,6.370318,-4.900245,1135
-23.980814,-983.213379,-119.904068,182.222229,248.888885,-267.500000,-0.070004,6.090304,-3.290164,1136
0.000000,-995.203796,-107.913666,188.888885,253.333328,-270.000000,0.630032,4.900245,-2.870144,1137
0.000000,-1007.194214,-119.904068,180.000000,248.888885,-267.500000,0.840042,3.780189,-2.450123,1138
11.990407,-1031.175049,-95.923256,188.888885,257.777771,-272.500000,0.070004,3.080154,-0.840042,1139
0.000000,-959.232544,-95.923256,188.888885,255.555557,-265.000000,0.140007,0.980049,-1.050053,1140
0.000000,-971.222961,-119.904068,186.666672,255.555557,-272.500000,-0.490025,0.350018,-0.140007,1141
0.000000,-1007.194214,-95.923256,184.444443,251.111115,-265.000000,-0.910046,0.000000,0.350018,1142
0.000000,-983.213379,-83.932854,186.666672,255.555557,-267.500000,-1.610080,-0.210010,1.610080,1143
0.000000,-959.232544,-71.942444,182.222229,251.111115,-267.500000,-2.030102,0.000000,2.800140,1144
0.000000,-971.222961,-95.923256,186.666672,257.777771,-270.000000,-2.660133,0.000000,3.920196,1145
0.000000,-1031.175049,-119.904068,186.666672,246.666672,-267.500000,-2.660133,0.140007,3.430171,1146
-11.990407,-1007.194214,-83.932854,188.888885,255.555557,-270.000000,-2.660133,-0.420021,2.800140,1147
0.000000,-1031.175049,-119.904068,182.222229,253.333328,-262.500000,-2.310116,-0.070004,1.540077,1148
0.000000,-995.203796,-83.932854,186.666672,255.555557,-267.500000,-1.400070,-0.140007,0.420021,1149
-47.961628,-983.213379,-119.904068,182.222229,251.111115,-262.500000,-1.050053,1.050053,-0.560028,1150
-23.980814,-1007.194214,-83.932854,188.888885,255.555557,-270.000000,-1.190060,1.330067,0.280014,1151
0.000000,-983.213379,-71.942444,188.888885,246.666672,-267.500000,-0.490025,2.170109,0.000000,1152
0.000000,-983.213379,-83.932854,188.888885,255.555557,-270.000000,-0.770038,1.680084,-1.680084,1153
-23.980814,-1007.194214,-95.923256,184.444443,248.888885,-267.500000,-0.630032,2.240112,-2.660133,1154
-11.990407,-1031.175049,-71.942444,186.666672,257.777771,-267.500000,-1.610080,3.360168,-2.310116,1155
0.000000,-959.232544,-95.923256,186.666672,248.888885,-265.000000,-1.260063,3.850193,-1.610080,1156
23.980814,-995.203796,-71.942444,191.111115,253.333328,-265.000000,-0.840042,3.290164,-0.630032,1157
-23.980814,-1055.155884,-119.904068,188.888885,248.888885,-265.000000,-0.910046,2.450123,0.070004,1158
-23.980814,-1019.184631,-119.904068,186.666672,255.555557,-270.000000,-1.400070,0.770038,-0.630032,1159
0.000000,-983.213379,-71.942444,186.666672,248.888885,-267.500000,-2.310116,-0.280014,-1.540077,1160
11.990407,-995.203796,-83.932854,186.666672,257.777771,-270.000000,-2.870144,-1.190060,-1.820091,1161
23.980814,-983.213379,-95.923256,184.444443,251.111115,-265.000000,-3.570179,-1.680084,-0.490025,1162
11.990407,-1007.194214,-107.913666,188.888885,255.555557,-265.000000,-3.220161,-1.750087,-0.980049,1163
0.000000,-1007.194214,-47.961628,184.444443,248.888885,-265.000000,-3.850193,-1.400070,-1.400070,1164
0.000000,-995.203796,-83.932854,188.888885,253.333328,-267.500000,-3.850193,-1.400070,-1.190060,1165
0.000000,-959.232544,-71.942444,186.666672,253.333328,-272.500000,-4.410221,-1.050053,-1.610080,1166
11.990407,-959.232544,-83.932854,191.111115,257.777771,-272.500000,-3.990200,-0.700035,-2.380119,1167
0.000000,-959.232544,-95.923256,182.222229,253.333328,-262.500000,-3.920196,0.070004,-2.170109,1168
11.990407,-971.222961,-107.913666,186.666672,255.555557,-272.500000,-3.290164,0.630032,-1.540077,1169
0.000000,-959.232544,-47.961628,182.222229,253.333328,-265.000000,-2.660133,1.120056,-1.330067,1170
-11.990407,-995.203796,-59.952034,184.444443,257.777771,-270.000000,-6.160308,3.150157,-1.540077,1171
-23.980814,-1055.155884,-119.904068,184.444443,251.111115,-262.500000,-5.950297,3.990200,-1.820091,1172
11.990407,-1007.194214,-143.884888,186.666672,253.333328,-267.500000,-3.360168,2.730137,-1.330067,1173
0.000000,-983.213379,-95.923256,182.222229,255.555557,-267.500000,-1.540077,1.610080,-2.940147,1174
11.990407,-971.222961,-83.932854,186.666672,255.555557,-272.500000,-0.350018,0.910046,-3.990200,1175
