ACC_X,ACC_Y,ACC_Z,MAG_X,MAG_Y,MAG_Z,GYRO_Y,GYRO_X,GYRO_Z,COUNT
-35.971222,35.971222,923.261353,211.111115,-362.222229,-387.500000,-1.610080,-0.350018,-0.560028,0
-71.942444,-23.980814,935.251770,215.555557,-351.111115,-392.500000,-1.610080,-0.700035,-0.420021,1
-47.961628,11.990407,959.232544,213.333328,-357.777771,-390.000000,-0.980049,-0.070004,0.070004,2
-23.980814,47.961628,935.251770,211.111115,-355.555542,-395.000000,-1.190060,-0.700035,-1.330067,3
-23.980814,47.961628,911.270935,208.888885,-357.777771,-390.000000,-0.910046,-0.630032,-0.980049,4
-71.942444,23.980814,911.270935,215.555557,-353.333344,-395.000000,-0.910046,-0.210010,-0.070004,5
-83.932854,11.990407,923.261353,213.333328,-355.555542,-387.500000,-0.980049,-0.350018,-0.840042,6
-47.961628,0.000000,887.290100,211.111115,-351.111115,-392.500000,-1.330067,-0.420021,-0.560028,7
-59.952034,0.000000,899.280518,213.333328,-360.000000,-387.500000,-1.120056,-0.700035,-0.560028,8
-23.980814,23.980814,887.290100,215.555557,-351.111115,-392.500000,-1.610080,-0.490025,-0.980049,9
-47.961628,23.980814,875.299744,208.888885,-357.777771,-387.500000,-0.980049,-0.140007,-0.770038,10
-47.961628,23.980814,863.309326,213.333328,-355.555542,-395.000000,-1.330067,-0.280014,-1.400070,11
-23.980814,11.990407,863.309326,211.111115,-357.777771,-385.000000,-1.400070,-0.210010,-1.190060,12
0.000000,23.980814,911.270935,213.333328,-355.555542,-392.500000,-1.680084,-0.910046,-0.770038,13
-23.980814,23.980814,911.270935,213.333328,-360.000000,-392.500000,-1.400070,-0.210010,-1.190060,14
-71.942444,23.980814,959.232544,213.333328,-355.555542,-395.000000,-1.400070,-0.490025,-1.050053,15
-47.961628,23.980814,899.280518,211.111115,-357.777771,-387.500000,-1.680084,-0.140007,-1.470073,16
-47.961628,0.000000,911.270935,215.555557,-351.111115,-392.500000,-1.400070,0.140007,-1.260063,17
-35.971222,23.980814,911.270935,213.333328,-357.777771,-390.000000,-1.190060,0.350018,-1.120056,18
0.000000,47.961628,887.290100,213.333328,-353.333344,-392.500000,-1.330067,0.350018,-1.330067,19
-35.971222,35.971222,887.290100,208.888885,-364.444458,-390.000000,-1.260063,0.000000,-1.400070,20
-71.942444,0.000000,911.270935,213.333328,-353.333344,-395.000000,-1.470073,-0.420021,-1.750087,21
-71.942444,-11.990407,887.290100,213.333328,-355.555542,-390.000000,-1.330067,0.070004,-0.420021,22
-71.942444,23.980814,863.309326,211.111115,-351.111115,-390.000000,-1.260063,-0.560028,0.070004,23
-59.952034,23.980814,887.290100,211.111115,-355.555542,-387.500000,-0.560028,-0.630032,0.420021,24
-23.980814,23.980814,863.309326,213.333328,-353.333344,-392.500000,-1.050053,-0.630032,-0.140007,25
-35.971222,35.971222,839.328491,208.888885,-360.000000,-387.500000,-1.470073,-0.420021,0.210010,26
-23.980814,0.000000,839.328491,211.111115,-355.555542,-392.500000,-1.400070,-0.840042,0.420021,27
-59.952034,11.990407,875.299744,213.333328,-357.777771,-390.000000,-1.750087,-0.770038,-0.210010,28
-23.980814,0.000000,887.290100,211.111115,-351.111115,-395.000000,-2.100105,-0.840042,-0.420021,29
-47.961628,11.990407,887.290100,213.333328,-357.777771,-390.000000,-1.330067,-0.420021,0.070004,30
0.000000,23.980814,863.309326,211.111115,-357.777771,-392.500000,-1.120056,0.070004,-0.490025,31
-23.980814,35.971222,899.280518,215.555557,-355.555542,-392.500000,-1.610080,0.000000,-0.070004,32
0.000000,0.000000,959.232544,213.333328,-351.111115,-390.000000,-1.470073,-0.070004,-0.980049,33
-35.971222,11.990407,935.251770,211.111115,-362.222229,-390.000000,-1.470073,0.210010,-1.050053,34
-71.942444,23.980814,911.270935,211.111115,-355.555542,-392.500000,-1.190060,-0.070004,-1.190060,35
-59.952034,23.980814,911.270935,211.111115,-355.555542,-390.000000,-1.120056,-0.280014,-0.980049,36
-47.961628,0.000000,911.270935,213.333328,-357.777771,-395.000000,-0.770038,-0.490025,-0.840042,37
-47.961628,0.000000,911.270935,208.888885,-364.444458,-387.500000,-0.770038,-0.070004,-0.420021,38
-47.961628,47.961628,839.328491,213.333328,-353.333344,-390.000000,-1.190060,-0.280014,-0.630032,39
-47.961628,35.971222,875.299744,213.333328,-355.555542,-387.500000,-0.980049,-0.350018,0.490025,40
-47.961628,0.000000,863.309326,215.555557,-355.555542,-390.000000,-1.120056,-0.560028,-0.350018,41
-47.961628,35.971222,875.299744,211.111115,-362.222229,-392.500000,-0.910046,-1.050053,-0.070004,42
-71.942444,47.961628,887.290100,211.111115,-353.333344,-397.500000,-0.630032,-0.630032,0.070004,43
-59.952034,11.990407,863.309326,204.444443,-360.000000,-387.500000,-0.980049,-0.980049,0.560028,44
-71.942444,23.980814,839.328491,208.888885,-351.111115,-392.500000,-0.700035,-0.700035,0.490025,45
-35.971222,23.980814,875.299744,211.111115,-360.000000,-385.000000,-0.490025,-0.210010,0.420021,46
0.000000,0.000000,887.290100,211.111115,-355.555542,-390.000000,-1.330067,-0.350018,-0.070004,47
-23.980814,0.000000,899.280518,211.111115,-353.333344,-390.000000,-1.120056,0.070004,-0.700035,48
-71.942444,71.942444,935.251770,211.111115,-351.111115,-392.500000,-1.190060,-0.070004,-0.070004,49
-23.980814,0.000000,911.270935,208.888885,-360.000000,-390.000000,-0.980049,-0.140007,-0.560028,50
-47.961628,11.990407,899.280518,215.555557,-355.555542,-395.000000,-1.470073,-0.140007,-0.980049,51
-47.961628,0.000000,935.251770,208.888885,-357.777771,-385.000000,-1.330067,-0.070004,0.000000,52
-59.952034,23.980814,911.270935,213.333328,-355.555542,-395.000000,-1.050053,0.000000,-0.490025,53
-95.923256,23.980814,887.290100,208.888885,-357.777771,-387.500000,-0.910046,-0.210010,-0.070004,54
-59.952034,23.980814,899.280518,217.777771,-353.333344,-395.000000,-0.980049,-0.770038,0.070004,55
-47.961628,0.000000,887.290100,213.333328,-355.555542,-392.500000,-1.260063,-0.560028,0.560028,56
-47.961628,23.980814,911.270935,213.333328,-357.777771,-392.500000,-1.260063,-0.420021,0.350018,57
0.000000,23.980814,863.309326,208.888885,-362.222229,-385.000000,-1.260063,-0.560028,-0.140007,58
-23.980814,11.990407,911.270935,213.333328,-353.333344,-390.000000,-1.470073,-0.280014,-0.490025,59
-95.923256,0.000000,863.309326,213.333328,-355.555542,-390.000000,-1.190060,0.140007,-0.140007,60
-59.952034,23.980814,875.299744,213.333328,-355.555542,-392.500000,-1.960098,0.560028,-0.280014,61
-119.904068,-23.980814,887.290100,208.888885,-362.222229,-387.500000,-7.210361,2.520126,6.510325,62
-119.904068,-23.980814,911.270935,211.111115,-353.333344,-390.000000,-2.660133,-0.350018,2.730137,63
-23.980814,0.000000,911.270935,208.888885,-357.777771,-387.500000,-1.890095,-0.630032,-0.700035,64
-23.980814,11.990407,923.261353,213.333328,-357.777771,-392.500000,-1.120056,0.140007,-0.980049,65
-71.942444,23.980814,887.290100,211.111115,-357.777771,-392.500000,-0.490025,0.280014,-0.700035,66
-35.971222,0.000000,935.251770,213.333328,-353.333344,-395.000000,-0.840042,0.070004,-1.050053,67
0.000000,23.980814,887.290100,211.111115,-364.444458,-387.500000,-1.050053,-0.280014,-0.770038,68
-35.971222,11.990407,911.270935,211.111115,-355.555542,-392.500000,-0.770038,0.000000,-0.840042,69
-95.923256,-23.980814,911.270935,208.888885,-362.222229,-387.500000,-0.840042,-0.280014,-1.470073,70
-59.952034,23.980814,863.309326,213.333328,-353.333344,-392.500000,-1.050053,-0.490025,-1.050053,71
-71.942444,23.980814,911.270935,211.111115,-357.777771,-387.500000,-0.840042,0.140007,-1.330067,72
-71.942444,35.971222,887.290100,213.333328,-355.555542,-392.500000,-0.910046,0.000000,-0.910046,73
-47.961628,23.980814,887.290100,215.555557,-357.777771,-390.000000,-0.910046,0.000000,-0.980049,74
-71.942444,11.990407,887.290100,211.111115,-353.333344,-397.500000,-1.400070,0.070004,-0.980049,75
-71.942444,0.000000,887.290100,213.333328,-362.222229,-387.500000,-1.400070,-0.140007,-0.910046,76
-59.952034,11.990407,887.290100,215.555557,-348.888885,-395.000000,-1.330067,-0.210010,-0.070004,77
0.000000,-23.980814,911.270935,211.111115,-362.222229,-390.000000,-1.120056,0.000000,-0.840042,78
-23.980814,0.000000,875.299744,211.111115,-355.555542,-395.000000,-1.330067,-0.420021,-0.420021,79
-23.980814,23.980814,887.290100,208.888885,-362.222229,-390.000000,-1.260063,-0.700035,0.420021,80
-35.971222,-23.980814,911.270935,213.333328,-353.333344,-395.000000,-0.980049,-0.420021,0.210010,81
-71.942444,23.980814,911.270935,208.888885,-355.555542,-392.500000,-0.840042,-0.070004,0.000000,82
-47.961628,0.000000,911.270935,211.111115,-353.333344,-390.000000,-1.610080,-0.420021,-0.420021,83
-23.980814,0.000000,911.270935,208.888885,-357.777771,-392.500000,-1.260063,-0.280014,0.070004,84
-23.980814,-11.990407,911.270935,213.333328,-355.555542,-397.500000,-1.260063,-0.490025,-0.210010,85
-47.961628,23.980814,887.290100,206.666672,-362.222229,-392.500000,-1.330067,-0.350018,-0.350018,86
-35.971222,11.990407,899.280518,213.333328,-355.555542,-392.500000,-0.980049,-0.210010,-0.910046,87
-23.980814,71.942444,887.290100,211.111115,-362.222229,-385.000000,-1.190060,-0.630032,-0.980049,88
-59.952034,23.980814,875.299744,213.333328,-353.333344,-392.500000,-1.050053,-0.630032,-1.190060,89
-23.980814,47.961628,935.251770,208.888885,-362.222229,-387.500000,-1.050053,-0.630032,-0.420021,90
-35.971222,35.971222,923.261353,211.111115,-355.555542,-390.000000,-1.050053,-0.490025,-0.140007,91
-47.961628,0.000000,911.270935,213.333328,-362.222229,-387.500000,-0.700035,0.280014,-0.980049,92
-59.952034,0.000000,911.270935,215.555557,-351.111115,-395.000000,-1.120056,-0.350018,-0.210010,93
-119.904068,-23.980814,911.270935,211.111115,-357.777771,-390.000000,-1.400070,-0.070004,-0.700035,94
-35.971222,23.980814,887.290100,213.333328,-353.333344,-392.500000,-1.400070,0.000000,-1.260063,95
-47.961628,23.980814,983.213379,208.888885,-362.222229,-387.500000,-0.910046,-0.140007,-0.770038,96
-71.942444,11.990407,935.251770,215.555557,-353.333344,-395.000000,-1.120056,0.210010,-1.470073,97
-47.961628,0.000000,887.290100,213.333328,-362.222229,-390.000000,-1.050053,-0.140007,-1.680084,98
-59.952034,23.980814,911.270935,211.111115,-360.000000,-392.500000,-0.980049,-0.700035,-1.890095,99
-47.961628,23.980814,887.290100,211.111115,-360.000000,-387.500000,-1.540077,-0.350018,-1.260063,100
-59.952034,23.980814,911.270935,211.111115,-353.333344,-392.500000,-1.050053,-0.700035,-1.330067,101
-119.904068,-23.980814,887.290100,211.111115,-360.000000,-387.500000,-1.400070,-0.980049,-0.280014,102
-59.952034,23.980814,899.280518,213.333328,-353.333344,-397.500000,-0.630032,-0.490025,-0.070004,103
-71.942444,-23.980814,935.251770,213.333328,-353.333344,-387.500000,-0.280014,-1.050053,0.140007,104
-59.952034,-11.990407,911.270935,211.111115,-351.111115,-392.500000,-0.770038,0.070004,-0.560028,105
-47.961628,71.942444,911.270935,211.111115,-362.222229,-387.500000,-0.630032,-0.210010,-0.350018,106
-35.971222,23.980814,911.270935,211.111115,-357.777771,-395.000000,-0.770038,-0.280014,-0.140007,107
-47.961628,-23.980814,887.290100,213.333328,-355.555542,-387.500000,-0.770038,-0.630032,0.350018,108
-35.971222,0.000000,887.290100,213.333328,-351.111115,-395.000000,-0.980049,-0.840042,-0.910046,109
-71.942444,47.961628,887.290100,211.111115,-360.000000,-385.000000,-0.700035,-0.140007,-1.330067,110
-47.961628,35.971222,899.280518,215.555557,-355.555542,-392.500000,-0.840042,-0.210010,-1.120056,111
-23.980814,23.980814,911.270935,211.111115,-360.000000,-392.500000,-0.070004,0.000000,-0.420021,112
-23.980814,35.971222,923.261353,213.333328,-353.333344,-392.500000,-0.630032,-0.350018,-0.630032,113
-47.961628,23.980814,887.290100,206.666672,-357.777771,-390.000000,-0.350018,-0.210010,0.000000,114
-47.961628,47.961628,899.280518,211.111115,-353.333344,-392.500000,-0.350018,-0.070004,-0.490025,115
0.000000,0.000000,839.328491,211.111115,-355.555542,-390.000000,-0.630032,0.000000,-0.210010,116
-35.971222,11.990407,875.299744,215.555557,-353.333344,-392.500000,-1.190060,-0.280014,-0.280014,117
-47.961628,47.961628,911.270935,211.111115,-362.222229,-387.500000,-0.770038,-0.070004,-0.140007,118
-47.961628,35.971222,875.299744,213.333328,-353.333344,-392.500000,-0.420021,0.070004,-0.140007,119
-47.961628,0.000000,863.309326,208.888885,-357.777771,-387.500000,-0.630032,0.280014,-0.210010,120
-71.942444,0.000000,899.280518,213.333328,-353.333344,-392.500000,-1.120056,0.700035,0.000000,121
-143.884888,23.980814,911.270935,213.333328,-357.777771,-392.500000,-0.350018,0.700035,1.050053,122
-71.942444,59.952034,899.280518,211.111115,-353.333344,-395.000000,-0.350018,0.350018,-0.140007,123
-23.980814,0.000000,911.270935,213.333328,-353.333344,-387.500000,-0.490025,0.350018,-1.050053,124
-47.961628,35.971222,911.270935,213.333328,-357.777771,-390.000000,-0.560028,0.070004,-0.490025,125
-23.980814,47.961628,887.290100,213.333328,-351.111115,-395.000000,-0.350018,0.560028,-0.840042,126
-23.980814,23.980814,911.270935,213.333328,-351.111115,-395.000000,-0.350018,0.630032,-0.140007,127
-71.942444,0.000000,911.270935,211.111115,-362.222229,-387.500000,-0.420021,0.490025,-1.050053,128
-59.952034,23.980814,935.251770,215.555557,-355.555542,-392.500000,-0.070004,0.350018,0.000000,129
-95.923256,0.000000,935.251770,213.333328,-362.222229,-392.500000,-0.560028,0.070004,-0.700035,130
-83.932854,23.980814,899.280518,213.333328,-353.333344,-395.000000,-0.770038,0.210010,-0.840042,131
-71.942444,0.000000,911.270935,215.555557,-357.777771,-387.500000,-0.490025,0.560028,-0.840042,132
-47.961628,0.000000,899.280518,208.888885,-355.555542,-392.500000,-0.700035,0.280014,-0.420021,133
-47.961628,23.980814,887.290100,208.888885,-357.777771,-392.500000,-0.980049,0.070004,-0.980049,134
-83.932854,23.980814,923.261353,217.777771,-355.555542,-395.000000,-0.840042,-0.350018,-0.770038,135
-167.865707,23.980814,887.290100,208.888885,-362.222229,-390.000000,-1.750087,-0.770038,-0.700035,136
-83.932854,23.980814,899.280518,213.333328,-355.555542,-397.500000,-1.820091,-0.630032,0.000000,137
-95.923256,23.980814,887.290100,211.111115,-362.222229,-390.000000,-1.540077,-0.560028,-0.070004,138
-59.952034,23.980814,923.261353,213.333328,-355.555542,-392.500000,-2.170109,-1.400070,0.910046,139
-23.980814,0.000000,911.270935,211.111115,-355.555542,-390.000000,-1.610080,-1.540077,1.540077,140
-47.961628,11.990407,875.299744,208.888885,-357.777771,-390.000000,-2.240112,-1.120056,0.700035,141
-95.923256,0.000000,839.328491,213.333328,-355.555542,-392.500000,-2.030102,-1.470073,1.190060,142
-59.952034,23.980814,899.280518,208.888885,-355.555542,-392.500000,-2.030102,-1.330067,1.330067,143
-23.980814,23.980814,911.270935,206.666672,-360.000000,-387.500000,-1.400070,-1.050053,0.000000,144
-59.952034,47.961628,911.270935,211.111115,-353.333344,-392.500000,-1.820091,-0.770038,-0.210010,145
-95.923256,23.980814,863.309326,208.888885,-353.333344,-387.500000,-1.190060,-0.560028,-0.560028,146
-47.961628,23.980814,899.280518,213.333328,-353.333344,-392.500000,-1.330067,-0.070004,-0.280014,147
-47.961628,0.000000,911.270935,213.333328,-362.222229,-387.500000,-1.190060,-0.070004,-0.910046,148
-47.961628,0.000000,923.261353,213.333328,-357.777771,-395.000000,-1.050053,0.070004,-1.260063,149
-143.884888,0.000000,911.270935,208.888885,-355.555542,-392.500000,-0.350018,-0.070004,-1.190060,150
-107.913666,11.990407,911.270935,211.111115,-353.333344,-397.500000,-0.420021,0.000000,-1.260063,151
-47.961628,95.923256,911.270935,211.111115,-357.777771,-390.000000,-0.140007,0.070004,-0.840042,152
-23.980814,47.961628,899.280518,213.333328,-355.555542,-392.500000,-0.070004,-0.070004,-0.980049,153
0.000000,47.961628,887.290100,211.111115,-362.222229,-390.000000,-0.560028,0.140007,-0.770038,154
11.990407,11.990407,899.280518,213.333328,-353.333344,-395.000000,-0.910046,-0.070004,-1.190060,155
-23.980814,0.000000,863.309326,211.111115,-360.000000,-387.500000,-1.400070,-0.140007,-0.280014,156
-47.961628,23.980814,899.280518,215.555557,-351.111115,-392.500000,-1.470073,0.280014,-0.560028,157
-23.980814,0.000000,863.309326,211.111115,-355.555542,-387.500000,-1.540077,0.000000,-0.910046,158
-47.961628,11.990407,911.270935,208.888885,-355.555542,-392.500000,-1.890095,-0.280014,-0.980049,159
-23.980814,0.000000,911.270935,208.888885,-360.000000,-387.500000,-1.960098,-0.210010,-0.700035,160
-23.980814,23.980814,899.280518,211.111115,-351.111115,-395.000000,-2.240112,-0.210010,-0.840042,161
-71.942444,0.000000,887.290100,208.888885,-357.777771,-387.500000,-2.240112,-0.070004,-0.910046,162
-35.971222,11.990407,875.299744,215.555557,-353.333344,-395.000000,-2.030102,-0.840042,-0.840042,163
-23.980814,23.980814,911.270935,211.111115,-357.777771,-392.500000,-2.380119,-0.280014,-1.540077,164
-71.942444,11.990407,899.280518,215.555557,-351.111115,-392.500000,-1.890095,-0.140007,-1.680084,165
0.000000,23.980814,887.290100,211.111115,-360.000000,-390.000000,-1.680084,-0.350018,-1.680084,166
-47.961628,11.990407,935.251770,211.111115,-355.555542,-392.500000,-1.750087,-0.070004,-1.260063,167
-23.980814,-23.980814,887.290100,208.888885,-357.777771,-390.000000,-1.680084,0.070004,-1.470073,168
-23.980814,23.980814,923.261353,213.333328,-355.555542,-395.000000,-1.190060,-0.420021,-0.980049,169
0.000000,23.980814,911.270935,211.111115,-357.777771,-387.500000,-0.910046,-0.210010,-1.190060,170
-47.961628,11.990407,911.270935,213.333328,-351.111115,-397.500000,-1.330067,-0.560028,-1.540077,171
-119.904068,23.980814,887.290100,208.888885,-357.777771,-385.000000,-1.190060,-0.070004,-1.120056,172
-95.923256,23.980814,863.309326,213.333328,-353.333344,-395.000000,-0.840042,0.000000,-1.260063,173
0.000000,47.961628,863.309326,213.333328,-360.000000,-385.000000,-1.190060,0.000000,-0.700035,174
-35.971222,0.000000,887.290100,211.111115,-357.777771,-392.500000,-1.960098,-0.560028,-1.540077,175
-23.980814,23.980814,911.270935,215.555557,-353.333344,-390.000000,-2.730137,-0.840042,-1.680084,176
-59.952034,11.990407,911.270935,211.111115,-353.333344,-395.000000,-2.590130,-0.420021,-0.980049,177
-71.942444,0.000000,911.270935,204.444443,-357.777771,-387.500000,-2.030102,-0.070004,-1.680084,178
-59.952034,11.990407,899.280518,211.111115,-355.555542,-395.000000,-2.380119,-0.210010,-1.750087,179
-23.980814,0.000000,887.290100,208.888885,-360.000000,-390.000000,-1.750087,-0.210010,-1.260063,180
0.000000,35.971222,887.290100,215.555557,-353.333344,-392.500000,-1.050053,0.000000,-1.610080,181
-23.980814,0.000000,863.309326,211.111115,-355.555542,-387.500000,-1.260063,-0.210010,-0.770038,182
-59.952034,35.971222,911.270935,213.333328,-357.777771,-395.000000,-1.470073,-0.350018,-0.910046,183
-71.942444,11.990407,899.280518,208.888885,-357.777771,-392.500000,-1.610080,-0.420021,-0.700035,184
-47.961628,-23.980814,863.309326,215.555557,-353.333344,-392.500000,-1.610080,-0.280014,0.490025,185
-47.961628,23.980814,887.290100,211.111115,-362.222229,-387.500000,-1.120056,-0.420021,0.000000,186
-47.961628,23.980814,911.270935,213.333328,-353.333344,-397.500000,-1.190060,0.210010,-0.700035,187
-47.961628,23.980814,887.290100,208.888885,-357.777771,-390.000000,-0.910046,-0.210010,-0.350018,188
0.000000,0.000000,935.251770,213.333328,-353.333344,-390.000000,-0.700035,-0.070004,-0.840042,189
-23.980814,0.000000,899.280518,208.888885,-357.777771,-385.000000,-0.560028,-0.280014,-0.560028,190
-47.961628,23.980814,911.270935,211.111115,-355.555542,-395.000000,0.070004,-0.630032,0.490025,191
-47.961628,11.990407,887.290100,211.111115,-362.222229,-390.000000,0.420021,-0.840042,0.630032,192
-71.942444,23.980814,935.251770,208.888885,-353.333344,-392.500000,-0.840042,-0.700035,-1.260063,193
-35.971222,11.990407,923.261353,211.111115,-355.555542,-387.500000,-2.030102,-0.560028,-2.380119,194
0.000000,0.000000,911.270935,215.555557,-355.555542,-397.500000,-2.730137,-0.490025,-2.520126,195
-59.952034,11.990407,935.251770,211.111115,-357.777771,-390.000000,-2.870144,-0.420021,-2.660133,196
-119.904068,23.980814,887.290100,213.333328,-355.555542,-390.000000,-2.800140,-0.840042,-1.820091,197
-71.942444,35.971222,887.290100,211.111115,-360.000000,-390.000000,-2.660133,-0.280014,-1.680084,198
-71.942444,23.980814,935.251770,213.333328,-351.111115,-395.000000,-2.800140,-1.330067,-1.680084,199
-71.942444,23.980814,911.270935,213.333328,-355.555542,-387.500000,-2.450123,-1.540077,-0.910046,200
-71.942444,0.000000,935.251770,211.111115,-355.555542,-392.500000,-2.310116,-1.470073,-0.350018,201
-47.961628,59.952034,911.270935,208.888885,-357.777771,-390.000000,-1.890095,-2.450123,-0.280014,202
-23.980814,47.961628,839.328491,213.333328,-357.777771,-392.500000,-1.330067,-3.570179,0.070004,203
-59.952034,23.980814,899.280518,213.333328,-357.777771,-387.500000,1.890095,-2.870144,1.820091,204
-47.961628,23.980814,935.251770,213.333328,-353.333344,-392.500000,-1.470073,-1.610080,0.420021,205
-35.971222,35.971222,911.270935,208.888885,-364.444458,-387.500000,-2.310116,-1.750087,0.980049,206
-95.923256,23.980814,863.309326,215.555557,-351.111115,-390.000000,-0.490025,-1.400070,1.120056,207
-35.971222,35.971222,899.280518,213.333328,-360.000000,-392.500000,-0.490025,-1.610080,1.050053,208
-71.942444,0.000000,911.270935,213.333328,-355.555542,-387.500000,-1.120056,-1.540077,1.680084,209
-35.971222,11.990407,875.299744,215.555557,-360.000000,-395.000000,-1.050053,-1.260063,1.610080,210
-71.942444,0.000000,863.309326,213.333328,-355.555542,-392.500000,-0.280014,-1.470073,1.260063,211
-23.980814,23.980814,887.290100,208.888885,-362.222229,-387.500000,0.420021,-1.050053,1.050053,212
0.000000,23.980814,839.328491,213.333328,-353.333344,-392.500000,0.140007,-0.840042,0.210010,213
-35.971222,23.980814,911.270935,211.111115,-364.444458,-387.500000,0.210010,0.980049,-1.120056,214
-23.980814,23.980814,935.251770,215.555557,-353.333344,-392.500000,1.120056,1.540077,-1.610080,215
-35.971222,11.990407,899.280518,211.111115,-357.777771,-387.500000,0.630032,1.120056,-1.050053,216
-71.942444,-23.980814,863.309326,211.111115,-355.555542,-395.000000,1.190060,1.540077,-0.980049,217
-35.971222,0.000000,863.309326,213.333328,-355.555542,-392.500000,0.630032,0.560028,-1.190060,218
-23.980814,47.961628,887.290100,211.111115,-351.111115,-392.500000,0.700035,0.210010,-0.560028,219
-71.942444,35.971222,899.280518,211.111115,-360.000000,-385.000000,0.700035,0.420021,-0.210010,220
-71.942444,0.000000,911.270935,211.111115,-355.555542,-395.000000,0.770038,0.140007,0.490025,221
-47.961628,0.000000,887.290100,208.888885,-357.777771,-385.000000,0.910046,-0.350018,0.280014,222
-71.942444,0.000000,863.309326,215.555557,-353.333344,-395.000000,0.840042,-1.260063,0.560028,223
-71.942444,35.971222,887.290100,211.111115,-360.000000,-390.000000,0.070004,-0.700035,1.260063,224
-47.961628,0.000000,863.309326,211.111115,-351.111115,-395.000000,0.070004,-0.840042,1.190060,225
-131.894485,23.980814,875.299744,215.555557,-355.555542,-387.500000,0.280014,-0.910046,0.910046,226
-47.961628,23.980814,935.251770,211.111115,-353.333344,-390.000000,0.140007,-0.840042,1.400070,227
-11.990407,35.971222,971.222961,211.111115,-364.444458,-392.500000,0.490025,-0.980049,2.100105,228
-23.980814,23.980814,887.290100,211.111115,-353.333344,-390.000000,-2.240112,-1.260063,-1.470073,229
-35.971222,0.000000,887.290100,211.111115,-364.444458,-385.000000,-1.610080,-1.190060,-0.350018,230
-71.942444,47.961628,887.290100,215.555557,-353.333344,-390.000000,-1.960098,-1.120056,-0.210010,231
-71.942444,59.952034,923.261353,211.111115,-362.222229,-385.000000,-3.640182,-1.610080,-0.980049,232
-71.942444,23.980814,959.232544,213.333328,-353.333344,-395.000000,-3.850193,-2.520126,0.350018,233
-47.961628,35.971222,935.251770,211.111115,-357.777771,-387.500000,-3.500175,-2.240112,0.980049,234
-23.980814,0.000000,887.290100,211.111115,-357.777771,-392.500000,-3.220161,-2.030102,0.420021,235
-47.961628,0.000000,899.280518,211.111115,-357.777771,-392.500000,-3.360168,-2.170109,0.210010,236
-47.961628,47.961628,935.251770,208.888885,-355.555542,-392.500000,-2.660133,-1.680084,0.210010,237
-83.932854,11.990407,959.232544,208.888885,-360.000000,-387.500000,-2.170109,-1.260063,-0.490025,238
-47.961628,23.980814,887.290100,211.111115,-357.777771,-395.000000,-0.420021,0.700035,-0.700035,239
-35.971222,23.980814,899.280518,213.333328,-357.777771,-390.000000,-0.630032,0.280014,-0.560028,240
-47.961628,47.961628,863.309326,213.333328,-357.777771,-397.500000,0.350018,-0.140007,0.070004,241
-35.971222,35.971222,863.309326,211.111115,-360.000000,-382.500000,-0.210010,0.000000,-0.140007,242
0.000000,23.980814,935.251770,213.333328,-355.555542,-390.000000,0.000000,0.000000,0.700035,243
-71.942444,35.971222,911.270935,211.111115,-362.222229,-390.000000,-0.140007,-0.140007,-0.420021,244
23.980814,95.923256,911.270935,213.333328,-351.111115,-392.500000,-0.630032,-0.350018,-0.070004,245
-23.980814,35.971222,887.290100,208.888885,-357.777771,-385.000000,-1.260063,-0.280014,-1.120056,246
-71.942444,47.961628,911.270935,213.333328,-357.777771,-390.000000,-2.030102,0.210010,-1.330067,247
-35.971222,23.980814,911.270935,211.111115,-360.000000,-387.500000,-1.050053,-0.700035,-1.190060,248
-23.980814,47.961628,911.270935,213.333328,-353.333344,-395.000000,-1.680084,-0.070004,-1.050053,249
-23.980814,11.990407,911.270935,206.666672,-362.222229,-387.500000,-2.590130,-0.420021,-1.260063,250
0.000000,47.961628,911.270935,211.111115,-357.777771,-392.500000,-2.590130,-0.630032,-1.260063,251
-47.961628,35.971222,899.280518,211.111115,-355.555542,-392.500000,-1.680084,-0.350018,-1.960098,252
-23.980814,0.000000,911.270935,215.555557,-355.555542,-392.500000,-1.400070,-0.350018,-1.890095,253
-35.971222,0.000000,899.280518,208.888885,-362.222229,-387.500000,-2.450123,-0.560028,-1.890095,254
0.000000,23.980814,887.290100,213.333328,-353.333344,-392.500000,-2.870144,-0.420021,-0.840042,255
-47.961628,11.990407,899.280518,208.888885,-357.777771,-392.500000,-2.520126,-0.420021,-1.540077,256
0.000000,0.000000,839.328491,211.111115,-355.555542,-392.500000,-2.450123,-1.120056,-0.630032,257
-35.971222,11.990407,887.290100,208.888885,-362.222229,-392.500000,-2.660133,-1.540077,0.210010,258
-23.980814,0.000000,887.290100,211.111115,-353.333344,-392.500000,-2.800140,-1.050053,-0.420021,259
-47.961628,47.961628,899.280518,211.111115,-355.555542,-392.500000,-3.220161,-0.840042,0.000000,260
-47.961628,23.980814,839.328491,213.333328,-357.777771,-395.000000,-2.870144,-1.120056,0.000000,261
-83.932854,11.990407,899.280518,208.888885,-360.000000,-390.000000,-3.640182,-1.190060,0.280014,262
-71.942444,0.000000,887.290100,211.111115,-355.555542,-395.000000,-3.710186,-0.980049,0.420021,263
-83.932854,11.990407,887.290100,211.111115,-362.222229,-387.500000,-3.360168,-0.630032,0.700035,264
-47.961628,-47.961628,887.290100,211.111115,-357.777771,-390.000000,-5.320266,-2.800140,5.180259,265
-35.971222,-23.980814,887.290100,211.111115,-357.777771,-387.500000,-5.390270,-2.100105,3.920196,266
-23.980814,47.961628,887.290100,211.111115,-355.555542,-392.500000,-5.460273,-1.540077,2.450123,267
-11.990407,23.980814,911.270935,204.444443,-360.000000,-387.500000,-4.410221,-1.680084,3.290164,268
-23.980814,23.980814,863.309326,211.111115,-360.000000,-395.000000,-4.480224,-1.540077,2.800140,269
-35.971222,11.990407,923.261353,208.888885,-355.555542,-387.500000,-5.880294,-2.590130,3.780189,270
-71.942444,23.980814,863.309326,211.111115,-357.777771,-395.000000,-5.950297,-2.590130,4.760238,271
-95.923256,71.942444,887.290100,202.222229,-360.000000,-387.500000,-7.070354,-2.310116,6.370318,272
-71.942444,47.961628,887.290100,211.111115,-353.333344,-392.500000,-6.650332,-2.520126,9.590480,273
-47.961628,35.971222,911.270935,211.111115,-362.222229,-392.500000,-6.300315,-2.310116,6.720336,274
-47.961628,23.980814,887.290100,213.333328,-357.777771,-397.500000,-6.930346,-1.190060,7.350368,275
-59.952034,11.990407,887.290100,208.888885,-360.000000,-385.000000,-7.420371,-0.980049,8.470424,276
-47.961628,0.000000,911.270935,208.888885,-357.777771,-392.500000,-7.420371,-1.190060,12.460623,277
-23.980814,11.990407,935.251770,204.444443,-366.666656,-390.000000,-7.490375,-0.980049,12.180609,278
0.000000,23.980814,911.270935,204.444443,-355.555542,-397.500000,-8.120406,-0.700035,10.080504,279
-23.980814,35.971222,899.280518,202.222229,-364.444458,-395.000000,-8.190410,-1.400070,11.270564,280
-23.980814,23.980814,911.270935,206.666672,-362.222229,-395.000000,-8.050403,-0.910046,10.850543,281
-23.980814,0.000000,935.251770,202.222229,-364.444458,-390.000000,-7.980399,-1.330067,8.610431,282
-95.923256,47.961628,863.309326,204.444443,-360.000000,-397.500000,-7.840392,-2.240112,7.910396,283
-59.952034,35.971222,911.270935,206.666672,-366.666656,-390.000000,-7.630382,-2.310116,5.740287,284
-71.942444,23.980814,911.270935,202.222229,-357.777771,-395.000000,-5.950297,-2.660133,3.990200,285
-47.961628,23.980814,935.251770,202.222229,-362.222229,-387.500000,-5.390270,-2.100105,3.780189,286
-47.961628,0.000000,887.290100,202.222229,-355.555542,-395.000000,-5.180259,-2.240112,2.660133,287
-23.980814,11.990407,923.261353,204.444443,-362.222229,-387.500000,-4.970249,-2.240112,2.380119,288
-95.923256,71.942444,887.290100,204.444443,-357.777771,-392.500000,-4.550228,-1.890095,0.630032,289
-59.952034,47.961628,887.290100,200.000000,-366.666656,-387.500000,-4.130207,-2.240112,0.210010,290
-47.961628,0.000000,887.290100,202.222229,-357.777771,-397.500000,-3.990200,-1.540077,0.420021,291
-59.952034,47.961628,887.290100,202.222229,-364.444458,-392.500000,-4.060203,-2.380119,0.000000,292
-71.942444,0.000000,935.251770,204.444443,-360.000000,-395.000000,-3.220161,-1.470073,1.190060,293
-59.952034,23.980814,887.290100,204.444443,-364.444458,-387.500000,-2.380119,-0.280014,3.570179,294
-71.942444,23.980814,959.232544,206.666672,-355.555542,-395.000000,-3.360168,-1.050053,1.050053,295
-47.961628,23.980814,899.280518,200.000000,-364.444458,-392.500000,-2.800140,-2.240112,0.140007,296
0.000000,0.000000,935.251770,206.666672,-357.777771,-395.000000,-2.800140,-2.800140,3.220161,297
11.990407,11.990407,899.280518,200.000000,-362.222229,-392.500000,-3.220161,-3.430171,4.480224,298
23.980814,71.942444,887.290100,202.222229,-355.555542,-395.000000,-0.070004,-1.680084,12.880644,299
-35.971222,23.980814,923.261353,202.222229,-362.222229,-387.500000,-1.260063,-0.210010,16.590830,300
-23.980814,71.942444,839.328491,200.000000,-360.000000,-395.000000,-0.910046,-2.660133,7.980399,301
-35.971222,47.961628,875.299744,202.222229,-360.000000,-390.000000,-0.630032,-2.170109,2.660133,302
-47.961628,23.980814,959.232544,202.222229,-360.000000,-392.500000,0.700035,-2.100105,2.450123,303
-23.980814,35.971222,923.261353,200.000000,-364.444458,-395.000000,1.610080,-2.450123,2.170109,304
-71.942444,0.000000,1007.194214,202.222229,-362.222229,-395.000000,3.850193,-1.400070,4.130207,305
-47.961628,23.980814,911.270935,197.777771,-366.666656,-385.000000,4.410221,-1.470073,6.300315,306
0.000000,0.000000,911.270935,202.222229,-357.777771,-392.500000,1.820091,-1.540077,2.520126,307
-47.961628,23.980814,875.299744,200.000000,-368.888885,-387.500000,0.700035,-0.420021,0.140007,308
-47.961628,23.980814,911.270935,202.222229,-362.222229,-395.000000,1.120056,-0.770038,1.260063,309
-23.980814,47.961628,899.280518,202.222229,-360.000000,-390.000000,-0.490025,-0.350018,-0.070004,310
-47.961628,0.000000,911.270935,202.222229,-360.000000,-392.500000,-1.330067,-0.070004,-2.030102,311
-35.971222,11.990407,911.270935,200.000000,-364.444458,-390.000000,-1.610080,0.350018,-2.590130,312
0.000000,0.000000,887.290100,202.222229,-364.444458,-395.000000,-1.820091,-0.210010,-2.380119,313
-35.971222,11.990407,887.290100,200.000000,-366.666656,-390.000000,-3.080154,-0.210010,-3.290164,314
0.000000,71.942444,911.270935,202.222229,-364.444458,-395.000000,-1.820091,-0.420021,-2.100105,315
-23.980814,47.961628,887.290100,202.222229,-366.666656,-392.500000,-1.190060,-0.630032,-1.750087,316
0.000000,47.961628,887.290100,202.222229,-360.000000,-390.000000,-1.820091,-0.350018,-3.220161,317
-23.980814,11.990407,875.299744,206.666672,-368.888885,-392.500000,-2.100105,0.140007,-3.500175,318
-47.961628,23.980814,887.290100,197.777771,-364.444458,-392.500000,-1.470073,0.420021,-4.270214,319
-23.980814,11.990407,899.280518,197.777771,-362.222229,-395.000000,-0.770038,-0.490025,-3.010150,320
167.865707,263.788971,743.405273,206.666672,-360.000000,-395.000000,1.890095,-6.300315,3.290164,321
23.980814,71.942444,851.318909,202.222229,-371.111115,-392.500000,-1.120056,-0.280014,-5.110256,322
-47.961628,23.980814,887.290100,202.222229,-360.000000,-392.500000,-2.310116,1.120056,-5.670284,323
-71.942444,11.990407,923.261353,200.000000,-364.444458,-390.000000,-1.470073,1.120056,-4.480224,324
-215.827332,-71.942444,1031.175049,206.666672,-362.222229,-395.000000,2.170109,-3.990200,2.380119,325
-107.913666,-23.980814,947.242188,202.222229,-362.222229,-392.500000,-0.350018,-0.140007,-2.450123,326
-71.942444,0.000000,935.251770,202.222229,-360.000000,-397.500000,-2.100105,0.070004,-2.730137,327
-23.980814,11.990407,935.251770,204.444443,-362.222229,-395.000000,-2.800140,1.120056,-2.450123,328
311.750580,191.846512,719.424438,202.222229,-357.777771,-395.000000,1.330067,-7.840392,10.080504,329
59.952034,71.942444,887.290100,202.222229,-368.888885,-387.500000,-1.820091,-0.280014,-0.980049,330
-119.904068,0.000000,887.290100,202.222229,-362.222229,-395.000000,-2.800140,0.910046,-2.730137,331
-119.904068,-11.990407,947.242188,202.222229,-364.444458,-390.000000,-2.100105,-0.280014,-0.070004,332
-71.942444,-71.942444,1007.194214,202.222229,-366.666656,-392.500000,0.280014,-3.360168,7.280364,333
-35.971222,23.980814,935.251770,200.000000,-368.888885,-387.500000,-0.980049,-0.140007,2.450123,334
-23.980814,23.980814,911.270935,200.000000,-357.777771,-395.000000,-2.660133,1.260063,-2.940147,335
-23.980814,11.990407,887.290100,200.000000,-362.222229,-397.500000,-1.540077,0.980049,-2.380119,336
-47.961628,0.000000,935.251770,200.000000,-364.444458,-392.500000,-1.680084,0.350018,-1.890095,337
-83.932854,-35.971222,947.242188,200.000000,-368.888885,-387.500000,0.000000,-1.540077,1.470073,338
-119.904068,0.000000,911.270935,202.222229,-362.222229,-395.000000,0.700035,-0.560028,1.050053,339
-59.952034,11.990407,911.270935,200.000000,-368.888885,-392.500000,-1.400070,-0.910046,-0.630032,340
-23.980814,0.000000,887.290100,202.222229,-357.777771,-392.500000,-2.030102,-0.280014,-1.190060,341
-35.971222,0.000000,887.290100,202.222229,-364.444458,-387.500000,-1.820091,-0.140007,-1.260063,342
-23.980814,-23.980814,935.251770,206.666672,-357.777771,-395.000000,-1.260063,-0.700035,-1.260063,343
-11.990407,23.980814,923.261353,202.222229,-364.444458,-390.000000,-1.400070,-0.070004,-1.400070,344
-47.961628,0.000000,911.270935,204.444443,-360.000000,-385.000000,-1.260063,-0.490025,-1.050053,345
-35.971222,35.971222,923.261353,197.777771,-368.888885,-392.500000,-1.260063,-0.210010,-1.610080,346
-47.961628,0.000000,887.290100,202.222229,-362.222229,-392.500000,-1.190060,-0.490025,-0.280014,347
-23.980814,-11.990407,899.280518,202.222229,-357.777771,-385.000000,-1.400070,-0.280014,-0.140007,348
-23.980814,0.000000,911.270935,206.666672,-360.000000,-392.500000,-0.840042,-0.350018,0.070004,349
0.000000,11.990407,899.280518,197.777771,-364.444458,-387.500000,-1.260063,0.070004,-0.350018,350
23.980814,71.942444,887.290100,202.222229,-357.777771,-392.500000,-1.050053,0.280014,0.770038,351
-11.990407,71.942444,911.270935,200.000000,-366.666656,-387.500000,-0.910046,0.210010,0.420021,352
-23.980814,0.000000,863.309326,202.222229,-362.222229,-392.500000,-1.540077,0.630032,0.630032,353
-59.952034,11.990407,899.280518,204.444443,-366.666656,-387.500000,-2.590130,0.140007,1.960098,354
-23.980814,47.961628,887.290100,200.000000,-355.555542,-395.000000,-1.540077,0.700035,1.120056,355
-23.980814,35.971222,899.280518,200.000000,-366.666656,-385.000000,-0.910046,0.910046,1.890095,356
0.000000,23.980814,911.270935,202.222229,-364.444458,-395.000000,-0.070004,0.980049,2.450123,357
0.000000,35.971222,899.280518,202.222229,-368.888885,-390.000000,-0.070004,1.400070,1.610080,358
-95.923256,23.980814,911.270935,202.222229,-357.777771,-390.000000,0.560028,1.540077,2.380119,359
-71.942444,11.990407,911.270935,200.000000,-366.666656,-390.000000,0.490025,0.980049,2.380119,360
-23.980814,23.980814,911.270935,202.222229,-366.666656,-392.500000,-0.560028,0.630032,3.920196,361
-11.990407,23.980814,911.270935,204.444443,-357.777771,-387.500000,-0.350018,0.700035,4.340217,362
-95.923256,0.000000,911.270935,202.222229,-357.777771,-397.500000,-1.120056,0.910046,2.730137,363
-23.980814,11.990407,935.251770,197.777771,-362.222229,-390.000000,-0.420021,1.050053,2.030102,364
-71.942444,23.980814,911.270935,206.666672,-360.000000,-395.000000,-0.140007,1.120056,2.100105,365
-47.961628,0.000000,899.280518,200.000000,-364.444458,-390.000000,-0.140007,0.070004,1.960098,366
0.000000,23.980814,839.328491,204.444443,-357.777771,-392.500000,0.140007,0.420021,3.570179,367
-11.990407,23.980814,875.299744,200.000000,-366.666656,-387.500000,-0.490025,1.050053,2.380119,368
0.000000,23.980814,935.251770,202.222229,-360.000000,-392.500000,-0.910046,0.840042,3.150157,369
-47.961628,35.971222,947.242188,200.000000,-364.444458,-387.500000,-0.630032,1.050053,3.080154,370
-47.961628,71.942444,935.251770,202.222229,-364.444458,-397.500000,-0.420021,0.700035,6.300315,371
-23.980814,23.980814,899.280518,202.222229,-368.888885,-387.500000,-0.840042,0.770038,4.690235,372
-71.942444,0.000000,887.290100,202.222229,-357.777771,-392.500000,-0.840042,0.840042,4.130207,373
-47.961628,11.990407,911.270935,200.000000,-366.666656,-385.000000,-0.980049,1.540077,3.710186,374
-47.961628,23.980814,911.270935,202.222229,-360.000000,-392.500000,-1.680084,2.240112,2.520126,375
-11.990407,23.980814,923.261353,202.222229,-364.444458,-390.000000,0.840042,0.280014,3.850193,376
-47.961628,23.980814,911.270935,206.666672,-360.000000,-397.500000,-0.490025,2.800140,5.250263,377
-47.961628,47.961628,923.261353,200.000000,-364.444458,-392.500000,-1.400070,3.780189,5.740287,378
-239.808136,215.827332,935.251770,200.000000,-364.444458,-395.000000,0.070004,0.140007,5.320266,379
-71.942444,83.932854,911.270935,193.333328,-366.666656,-390.000000,3.010150,-1.400070,10.080504,380
-23.980814,23.980814,911.270935,202.222229,-360.000000,-395.000000,5.390270,-1.750087,9.870494,381
-23.980814,23.980814,911.270935,197.777771,-364.444458,-387.500000,1.680084,-1.330067,7.980399,382
-71.942444,47.961628,887.290100,202.222229,-360.000000,-395.000000,2.450123,-1.190060,7.840392,383
-119.904068,59.952034,899.280518,197.777771,-362.222229,-392.500000,8.190410,-1.750087,8.680434,384
-167.865707,-23.980814,887.290100,204.444443,-362.222229,-392.500000,11.410571,-3.080154,4.760238,385
-83.932854,-191.846512,887.290100,200.000000,-366.666656,-390.000000,12.250612,-3.780189,1.960098,386
-191.846512,0.000000,911.270935,200.000000,-364.444458,-392.500000,15.190760,-2.590130,-8.050403,387
-167.865707,35.971222,1079.136597,200.000000,-364.444458,-390.000000,21.491076,-0.490025,-12.810640,388
-167.865707,143.884888,1294.963989,206.666672,-362.222229,-392.500000,27.231361,15.890795,-14.350718,389
-179.856110,143.884888,1330.935181,206.666672,-362.222229,-385.000000,42.912148,41.162060,-16.170809,390
-191.846512,-71.942444,2134.292480,208.888885,-362.222229,-390.000000,54.532726,55.512775,-9.170459,391
11.990407,47.961628,2218.225342,211.111115,-368.888885,-390.000000,50.542526,18.550928,5.530277,392
47.961628,167.865707,2757.793701,213.333328,-362.222229,-395.000000,38.571930,8.680434,8.890445,393
155.875290,71.942444,2278.177246,208.888885,-362.222229,-387.500000,22.821142,3.640182,5.040252,394
0.000000,191.846512,2278.177246,213.333328,-360.000000,-390.000000,9.660483,-2.660133,2.240112,395
-11.990407,107.913666,2278.177246,215.555557,-362.222229,-395.000000,-5.740287,-9.800490,1.820091,396
-191.846512,0.000000,2110.311768,213.333328,-355.555542,-397.500000,-25.131256,-17.290865,2.520126,397
-191.846512,131.894485,1990.407593,211.111115,-366.666656,-392.500000,-34.371719,-19.880995,1.400070,398
-239.808136,407.673828,2398.081543,211.111115,-360.000000,-395.000000,-53.972698,-29.191460,2.450123,399
-251.798553,155.875290,1810.551514,208.888885,-368.888885,-392.500000,-76.163811,-35.211761,0.910046,400
-71.942444,191.846512,1582.733765,208.888885,-362.222229,-400.000000,-77.003853,-21.981100,11.830591,401
-47.961628,179.856110,1558.752930,202.222229,-371.111115,-400.000000,-74.833740,-13.860693,4.410221,402
0.000000,167.865707,1678.656982,206.666672,-366.666656,-407.500000,-112.635635,-14.210711,-33.881695,403
47.961628,47.961628,1594.724121,202.222229,-366.666656,-407.500000,-150.017502,-10.570529,-34.301716,404
-23.980814,95.923256,1247.002319,195.555557,-362.222229,-415.000000,-168.778442,-22.541128,-36.751839,405
-23.980814,11.990407,1163.069458,188.888885,-375.555542,-412.500000,-159.327972,-13.020651,-37.311867,406
-23.980814,47.961628,1151.079102,186.666672,-364.444458,-422.500000,-148.547424,-8.260413,-33.461674,407
-23.980814,-11.990407,983.213379,182.222229,-371.111115,-422.500000,-148.407425,-22.121107,-35.631783,408
-71.942444,0.000000,767.386047,184.444443,-366.666656,-427.500000,-137.976898,-16.800840,-37.451874,409
-35.971222,0.000000,791.366882,173.333328,-371.111115,-427.500000,-130.906540,-15.470774,-36.611832,410
-47.961628,-71.942444,695.443604,173.333328,-366.666656,-435.000000,-127.826393,-17.500875,-35.981800,411
-23.980814,-107.913666,659.472412,166.666672,-368.888885,-432.500000,-121.456078,-24.151207,-34.021702,412
0.000000,-119.904068,455.635468,164.444443,-371.111115,-432.500000,-110.535530,-28.841442,-29.051453,413
-11.990407,-107.913666,419.664246,155.555557,-377.777771,-435.000000,-98.284912,-29.751488,-24.501225,414
-191.846512,-47.961628,287.769775,162.222229,-373.333344,-442.500000,-83.164162,-28.071404,-14.630732,415
59.952034,11.990407,263.788971,153.333328,-375.555542,-440.000000,-69.233459,-33.111656,-10.220511,416
191.846512,23.980814,71.942444,151.111115,-375.555542,-447.500000,-61.323067,-29.891495,-10.220511,417
167.865707,23.980814,59.952034,148.888885,-380.000000,-440.000000,-46.622330,-20.721037,-13.510675,418
191.846512,0.000000,143.884888,153.333328,-375.555542,-442.500000,-37.521877,-13.580679,-14.420721,419
191.846512,0.000000,203.836914,151.111115,-380.000000,-440.000000,-34.931747,-15.120756,-14.210711,420
239.808136,47.961628,287.769775,148.888885,-377.777771,-440.000000,-33.041653,-19.460974,-14.280714,421
227.817734,23.980814,299.760193,140.000000,-382.222229,-440.000000,-32.481625,-23.031153,-12.460623,422
191.846512,23.980814,383.693024,144.444443,-377.777771,-447.500000,-32.971649,-24.361217,-11.200561,423
191.846512,11.990407,395.683441,140.000000,-388.888885,-440.000000,-34.861744,-24.711235,-10.220511,424
239.808136,0.000000,431.654663,144.444443,-384.444458,-450.000000,-38.221912,-21.631083,-12.880644,425
215.827332,23.980814,491.606689,140.000000,-386.666656,-445.000000,-40.812042,-13.090654,-13.790689,426
191.846512,23.980814,503.597107,137.777771,-380.000000,-447.500000,-43.122158,-5.040252,-14.700735,427
203.836914,23.980814,539.568298,137.777771,-391.111115,-450.000000,-47.462372,1.750087,-14.910746,428
191.846512,23.980814,575.539551,137.777771,-386.666656,-450.000000,-50.262512,8.960448,-13.650682,429
191.846512,-11.990407,587.529968,140.000000,-384.444458,-452.500000,-46.132309,13.720686,-9.450473,430
191.846512,23.980814,551.558716,133.333328,-380.000000,-452.500000,-36.121807,18.200911,-2.310116,431
47.961628,47.961628,515.587524,133.333328,-395.555542,-450.000000,-21.071054,23.661182,5.600280,432
-167.865707,23.980814,383.693024,133.333328,-382.222229,-455.000000,-4.410221,31.081554,11.970598,433
-167.865707,0.000000,395.683441,131.111115,-386.666656,-450.000000,9.590480,39.341969,11.970598,434
-143.884888,23.980814,335.731415,131.111115,-380.000000,-455.000000,15.400770,45.152260,8.330417,435
-119.904068,23.980814,359.712219,131.111115,-382.222229,-455.000000,27.721386,60.063004,7.280364,436
-23.980814,47.961628,443.645050,140.000000,-375.555542,-460.000000,38.641933,68.953445,5.810291,437
-119.904068,23.980814,527.577942,135.555557,-377.777771,-457.500000,45.922298,70.073502,5.530277,438
-347.721802,-191.846512,683.453186,142.222229,-366.666656,-460.000000,69.373466,88.554428,20.721037,439
-191.846512,0.000000,479.616272,142.222229,-368.888885,-462.500000,101.715088,83.794189,24.641232,440
-155.875290,35.971222,443.645050,148.888885,-360.000000,-467.500000,106.545326,71.893593,18.480925,441
-23.980814,119.904068,407.673828,148.888885,-364.444458,-457.500000,104.935249,64.123207,12.880644,442
-59.952034,-59.952034,311.750580,153.333328,-355.555542,-462.500000,97.934898,53.412670,6.790339,443
-95.923256,143.884888,311.750580,153.333328,-362.222229,-462.500000,85.894295,15.260763,-6.370318,444
-71.942444,83.932854,347.721802,157.777771,-360.000000,-462.500000,70.983551,3.360168,-7.700385,445
-71.942444,47.961628,383.693024,160.000000,-362.222229,-457.500000,55.302765,-4.550228,-9.730487,446
-47.961628,23.980814,431.654663,162.222229,-366.666656,-457.500000,40.812042,-11.900595,-11.830591,447
23.980814,-23.980814,599.520386,164.444443,-364.444458,-452.500000,32.271614,-24.151207,-14.280714,448
23.980814,-11.990407,719.424438,168.888885,-362.222229,-460.000000,16.660833,-31.851593,-15.260763,449
71.942444,23.980814,983.213379,162.222229,-371.111115,-455.000000,4.200210,-37.171860,-14.420721,450
107.913666,0.000000,1043.165405,164.444443,-362.222229,-455.000000,-1.680084,-35.001751,-9.310466,451
95.923256,0.000000,1151.079102,164.444443,-371.111115,-452.500000,-3.290164,-30.871544,-2.170109,452
107.913666,11.990407,1175.059937,166.666672,-364.444458,-457.500000,-6.230311,-19.390970,1.400070,453
119.904068,-23.980814,1223.021484,166.666672,-371.111115,-450.000000,-9.310466,-5.460273,4.270214,454
155.875290,-35.971222,1223.021484,164.444443,-366.666656,-452.500000,-9.310466,5.880294,6.860343,455
143.884888,0.000000,1175.059937,164.444443,-368.888885,-452.500000,-4.760238,8.890445,10.780540,456
167.865707,0.000000,1139.088623,166.666672,-364.444458,-457.500000,4.550228,8.820441,16.450823,457
191.846512,-23.980814,1055.155884,162.222229,-373.333344,-450.000000,17.080854,5.320266,25.271263,458
191.846512,11.990407,1031.175049,164.444443,-366.666656,-457.500000,33.181660,-0.490025,32.901646,459
191.846512,23.980814,983.213379,164.444443,-371.111115,-455.000000,43.122158,-3.010150,37.171860,460
167.865707,23.980814,935.251770,166.666672,-364.444458,-452.500000,62.933147,-7.560378,44.522228,461
191.846512,239.808136,575.539551,171.111115,-373.333344,-445.000000,82.394119,-25.761288,50.752537,462
107.913666,107.913666,875.299744,175.555557,-371.111115,-455.000000,83.514175,-47.532375,55.022751,463
239.808136,191.846512,887.290100,173.333328,-384.444458,-447.500000,49.842491,-41.092056,42.492126,464
215.827332,191.846512,923.261353,173.333328,-371.111115,-447.500000,21.491076,-32.481625,34.861744,465
167.865707,191.846512,911.270935,171.111115,-386.666656,-442.500000,12.040602,-27.441372,28.211411,466
119.904068,155.875290,923.261353,173.333328,-380.000000,-447.500000,13.440672,-29.191460,29.681484,467
47.961628,-23.980814,1055.155884,173.333328,-388.888885,-442.500000,16.590830,-23.661182,31.291565,468
35.971222,95.923256,959.232544,175.555557,-375.555542,-445.000000,17.640882,-8.890445,20.581030,469
47.961628,167.865707,863.309326,173.333328,-384.444458,-442.500000,16.030802,-9.800490,14.350718,470
11.990407,167.865707,863.309326,173.333328,-384.444458,-447.500000,11.340568,-2.800140,7.840392,471
71.942444,143.884888,887.290100,175.555557,-382.222229,-447.500000,8.050403,0.630032,-0.280014,472
83.932854,155.875290,863.309326,173.333328,-377.777771,-445.000000,1.610080,7.210361,-3.010150,473
167.865707,143.884888,1031.175049,171.111115,-386.666656,-442.500000,-6.930346,7.350368,-2.940147,474
119.904068,47.961628,1019.184631,175.555557,-377.777771,-447.500000,-7.280364,17.780890,-1.120056,475
47.961628,23.980814,1007.194214,168.888885,-380.000000,-442.500000,-6.230311,28.701435,-2.590130,476
23.980814,11.990407,1019.184631,175.555557,-377.777771,-447.500000,-7.140357,35.701786,-2.590130,477
-23.980814,0.000000,1055.155884,166.666672,-382.222229,-445.000000,-11.410571,41.932098,-2.450123,478
-11.990407,23.980814,983.213379,171.111115,-375.555542,-455.000000,-18.690935,49.422470,1.120056,479
191.846512,47.961628,959.232544,168.888885,-373.333344,-450.000000,-27.161358,59.922997,-2.170109,480
59.952034,-47.961628,1043.165405,166.666672,-368.888885,-452.500000,-35.491776,72.733635,-5.880294,481
-47.961628,-143.884888,887.290100,166.666672,-371.111115,-452.500000,-46.972347,77.143860,-7.700385,482
-107.913666,-143.884888,887.290100,166.666672,-366.666656,-460.000000,-42.772141,85.684288,-3.990200,483
167.865707,191.846512,647.481995,166.666672,-362.222229,-455.000000,-50.822540,84.494225,-19.460974,484
167.865707,119.904068,851.318909,166.666672,-355.555542,-460.000000,-49.282463,79.944000,-14.770739,485
167.865707,119.904068,599.520386,162.222229,-357.777771,-455.000000,-50.332516,99.054955,-4.270214,486
95.923256,-95.923256,803.357300,160.000000,-351.111115,-467.500000,-28.491425,118.935951,7.490375,487
95.923256,-191.846512,839.328491,160.000000,-344.444458,-465.000000,-17.710886,123.346169,6.650332,488
131.894485,-107.913666,803.357300,162.222229,-340.000000,-467.500000,-14.840742,122.016106,5.530277,489
191.846512,-119.904068,719.424438,155.555557,-342.222229,-472.500000,-13.370668,112.425621,3.080154,490
179.856110,-47.961628,743.405273,155.555557,-328.888885,-477.500000,-8.820441,99.054955,0.350018,491
167.865707,-71.942444,695.443604,155.555557,-331.111115,-477.500000,-1.540077,87.854393,3.080154,492
155.875290,-119.904068,767.386047,160.000000,-322.222229,-480.000000,0.980049,80.714035,2.800140,493
167.865707,-143.884888,791.366882,155.555557,-326.666656,-477.500000,-1.960098,76.583832,-1.260063,494
179.856110,-107.913666,791.366882,155.555557,-322.222229,-482.500000,-9.940497,71.963600,-3.990200,495
167.865707,-47.961628,911.270935,155.555557,-326.666656,-477.500000,-21.981100,66.783340,-4.970249,496
107.913666,-131.894485,983.213379,155.555557,-313.333344,-480.000000,-30.661533,63.563179,-4.970249,497
71.942444,-71.942444,959.232544,157.777771,-313.333344,-482.500000,-46.482327,53.692684,-5.530277,498
59.952034,-107.913666,959.232544,148.888885,-306.666656,-487.500000,-55.442772,47.392368,-2.870144,499
23.980814,-167.865707,959.232544,151.111115,-313.333344,-480.000000,-60.903046,42.632133,-3.780189,500
11.990407,-155.875290,947.242188,146.666672,-306.666656,-490.000000,-56.002800,38.151909,-2.100105,501
0.000000,-119.904068,863.309326,144.444443,-313.333344,-487.500000,-41.652084,40.462025,3.360168,502
0.000000,-71.942444,863.309326,146.666672,-302.222229,-492.500000,-27.721386,48.652431,9.170459,503
-23.980814,-47.961628,839.328491,137.777771,-306.666656,-487.500000,-19.460974,57.402870,12.530626,504
-11.990407,-95.923256,839.328491,142.222229,-304.444458,-492.500000,-15.120756,62.653133,15.050753,505
23.980814,-239.808136,719.424438,140.000000,-300.000000,-492.500000,-9.170459,63.703186,17.080854,506
23.980814,-179.856110,719.424438,140.000000,-288.888885,-500.000000,9.940497,58.662933,14.140707,507
71.942444,-215.827332,911.270935,140.000000,-302.222229,-495.000000,16.450823,55.932796,16.450823,508
95.923256,-251.798553,983.213379,140.000000,-293.333344,-497.500000,12.810640,55.022751,19.180960,509
287.769775,-335.731415,1031.175049,142.222229,-295.555542,-495.000000,1.890095,48.302414,20.721037,510
299.760193,-299.760193,983.213379,140.000000,-282.222229,-495.000000,-10.710536,35.421772,10.010501,511
215.827332,-359.712219,935.251770,135.555557,-291.111115,-490.000000,-15.400770,27.861393,15.330767,512
215.827332,-335.731415,1055.155884,140.000000,-284.444458,-497.500000,-22.611132,7.840392,4.900245,513
191.846512,-335.731415,1151.079102,137.777771,-284.444458,-497.500000,-20.021002,-13.930696,-4.550228,514
179.856110,-263.788971,1151.079102,137.777771,-286.666656,-497.500000,-12.250612,-33.671684,-8.890445,515
191.846512,-287.769775,503.597107,135.555557,-293.333344,-492.500000,-9.660483,-51.312565,-12.110605,516
119.904068,-203.836914,959.232544,137.777771,-291.111115,-495.000000,-1.610080,-52.362617,-15.890795,517
-47.961628,-71.942444,1055.155884,137.777771,-302.222229,-495.000000,3.150157,-60.203011,-16.240812,518
-83.932854,-59.952034,1079.136597,140.000000,-295.555542,-492.500000,11.900595,-70.493523,-17.570879,519
-71.942444,0.000000,1031.175049,135.555557,-302.222229,-490.000000,18.410921,-83.514175,-17.500875,520
-83.932854,-11.990407,995.203796,142.222229,-300.000000,-495.000000,18.620932,-91.144562,-17.010851,521
0.000000,239.808136,1318.944824,146.666672,-306.666656,-490.000000,21.631083,-104.375221,-27.441372,522
-11.990407,-11.990407,923.261353,142.222229,-311.111115,-485.000000,32.761639,-108.575432,-50.542526,523
23.980814,-167.865707,551.558716,142.222229,-320.000000,-480.000000,16.170809,-120.616035,-45.082256,524
119.904068,-131.894485,587.529968,148.888885,-320.000000,-487.500000,7.840392,-117.045853,-43.192162,525
191.846512,-143.884888,647.481995,146.666672,-328.888885,-477.500000,4.830242,-106.475327,-37.031853,526
155.875290,-167.865707,623.501160,148.888885,-328.888885,-480.000000,9.380469,-97.864891,-26.461323,527
0.000000,-383.693024,647.481995,148.888885,-335.555542,-477.500000,17.430872,-93.524673,-12.880644,528
143.884888,-191.846512,719.424438,148.888885,-333.333344,-475.000000,21.841093,-82.324120,16.170809,529
191.846512,-47.961628,983.213379,148.888885,-344.444458,-475.000000,20.161009,-81.764091,19.740988,530
191.846512,-71.942444,971.222961,151.111115,-342.222229,-470.000000,8.050403,-86.034302,21.981100,531
167.865707,-95.923256,887.290100,146.666672,-353.333344,-470.000000,1.750087,-90.444527,23.451172,532
179.856110,-59.952034,899.280518,148.888885,-348.888885,-467.500000,1.330067,-90.794540,21.631083,533
71.942444,0.000000,935.251770,144.444443,-357.777771,-465.000000,4.410221,-88.274414,17.500875,534
143.884888,83.932854,983.213379,153.333328,-355.555542,-470.000000,9.940497,-83.864197,3.570179,535
0.000000,-191.846512,671.462830,148.888885,-368.888885,-462.500000,15.820791,-72.593628,-3.990200,536
143.884888,47.961628,779.376465,153.333328,-362.222229,-467.500000,19.950998,-51.102554,-0.770038,537
143.884888,95.923256,839.328491,148.888885,-362.222229,-462.500000,15.610781,-33.951698,-19.950998,538
191.846512,47.961628,839.328491,153.333328,-362.222229,-465.000000,12.110605,-21.071054,-30.031502,539
455.635468,743.405273,887.290100,155.555557,-362.222229,-462.500000,11.410571,-14.840742,-39.621983,540
167.865707,107.913666,959.232544,162.222229,-360.000000,-462.500000,5.810291,-13.370668,-79.944000,541
-47.961628,-143.884888,815.347656,155.555557,-364.444458,-462.500000,-0.140007,-11.550578,-72.733635,542
-35.971222,-107.913666,899.280518,162.222229,-357.777771,-465.000000,-6.930346,-5.530277,-56.212811,543
191.846512,143.884888,1031.175049,155.555557,-366.666656,-462.500000,-17.220861,9.590480,-27.161358,544
191.846512,47.961628,947.242188,160.000000,-362.222229,-465.000000,-29.821491,8.330417,-17.570879,545
47.961628,0.000000,623.501160,160.000000,-364.444458,-460.000000,-26.181309,13.300665,-13.090654,546
167.865707,23.980814,755.395630,155.555557,-357.777771,-465.000000,-14.980749,26.181309,-8.960448,547
167.865707,-23.980814,863.309326,160.000000,-357.777771,-462.500000,-8.680434,31.291565,-9.730487,548
179.856110,-11.990407,767.386047,155.555557,-351.111115,-467.500000,-14.560728,35.141758,-3.500175,549
167.865707,0.000000,719.424438,155.555557,-355.555542,-465.000000,-12.950647,33.531677,1.190060,550
143.884888,-11.990407,707.434021,160.000000,-353.333344,-467.500000,-3.570179,27.931396,-1.680084,551
119.904068,0.000000,767.386047,155.555557,-360.000000,-462.500000,3.500175,21.001051,-3.850193,552
119.904068,0.000000,755.395630,155.555557,-348.888885,-470.000000,5.460273,15.680784,-3.010150,553
167.865707,-23.980814,839.328491,155.555557,-362.222229,-470.000000,2.590130,14.840742,-1.190060,554
167.865707,-23.980814,815.347656,160.000000,-346.666656,-467.500000,1.470073,14.630732,-3.080154,555
143.884888,0.000000,863.309326,155.555557,-351.111115,-467.500000,7.840392,18.410921,-5.880294,556
155.875290,-35.971222,815.347656,157.777771,-351.111115,-467.500000,13.160658,23.941196,-5.530277,557
143.884888,-95.923256,695.443604,160.000000,-351.111115,-470.000000,16.310816,27.371368,-2.310116,558
179.856110,-35.971222,839.328491,160.000000,-346.666656,-475.000000,21.001051,30.241512,-5.040252,559
71.942444,-47.961628,767.386047,160.000000,-351.111115,-467.500000,24.781239,23.311165,-8.820441,560
119.904068,-35.971222,815.347656,164.444443,-346.666656,-470.000000,23.241163,25.061253,0.700035,561
95.923256,0.000000,935.251770,160.000000,-351.111115,-467.500000,22.751139,17.780890,4.410221,562
71.942444,-23.980814,947.242188,164.444443,-342.222229,-470.000000,22.331118,7.490375,5.110256,563
119.904068,-23.980814,959.232544,164.444443,-342.222229,-462.500000,21.631083,-0.840042,7.910396,564
59.952034,-47.961628,947.242188,164.444443,-346.666656,-467.500000,20.301016,-7.490375,9.730487,565
23.980814,-47.961628,983.213379,162.222229,-351.111115,-465.000000,15.820791,-14.420721,8.400420,566
59.952034,-59.952034,971.222961,168.888885,-346.666656,-470.000000,11.690584,-20.511026,6.440322,567
71.942444,-23.980814,935.251770,164.444443,-353.333344,-465.000000,10.640532,-26.041302,5.180259,568
71.942444,-71.942444,971.222961,166.666672,-346.666656,-470.000000,10.150508,-27.371368,3.640182,569
0.000000,-23.980814,959.232544,164.444443,-353.333344,-465.000000,9.100455,-27.441372,4.760238,570
47.961628,-47.961628,995.203796,166.666672,-348.888885,-467.500000,9.170459,-26.531326,4.620231,571
23.980814,23.980814,935.251770,164.444443,-355.555542,-465.000000,13.230661,-24.921246,2.310116,572
59.952034,0.000000,947.242188,166.666672,-357.777771,-462.500000,18.550928,-21.701086,1.120056,573
47.961628,0.000000,911.270935,173.333328,-351.111115,-467.500000,23.871193,-17.570879,0.070004,574
47.961628,-11.990407,839.328491,171.111115,-351.111115,-462.500000,32.621632,-11.270564,-1.610080,575
0.000000,71.942444,863.309326,175.555557,-357.777771,-460.000000,39.481976,-4.200210,-1.890095,576
11.990407,11.990407,923.261353,173.333328,-353.333344,-462.500000,37.101856,-3.920196,-4.410221,577
47.961628,0.000000,863.309326,173.333328,-362.222229,-457.500000,34.581730,-7.140357,-6.230311,578
95.923256,35.971222,887.290100,175.555557,-351.111115,-465.000000,36.611832,-14.350718,-5.110256,579
71.942444,0.000000,935.251770,177.777771,-362.222229,-457.500000,40.742039,-22.261114,-1.400070,580
131.894485,-11.990407,911.270935,180.000000,-360.000000,-462.500000,48.092403,-26.461323,0.980049,581
143.884888,-119.904068,743.405273,177.777771,-360.000000,-457.500000,80.574028,-24.781239,-5.950297,582
131.894485,-23.980814,815.347656,191.111115,-355.555542,-455.000000,97.094856,-23.661182,-9.870494,583
119.904068,23.980814,791.366882,191.111115,-362.222229,-452.500000,123.906197,-23.241163,-14.140707,584
71.942444,23.980814,827.338074,202.222229,-355.555542,-452.500000,150.857544,-22.891146,-17.010851,585
119.904068,-23.980814,815.347656,206.666672,-364.444458,-442.500000,175.218765,-26.251312,-17.500875,586
23.980814,11.990407,851.318909,211.111115,-357.777771,-445.000000,199.439972,-34.161709,-19.250963,587
-167.865707,0.000000,935.251770,217.777771,-364.444458,-437.500000,219.320969,-48.302414,-14.910746,588
-107.913666,11.990407,899.280518,228.888885,-360.000000,-440.000000,234.511734,-64.683235,-9.520476,589
-143.884888,95.923256,743.405273,237.777771,-366.666656,-427.500000,253.132660,-71.403572,-9.310466,590
-95.923256,143.884888,611.510742,244.444443,-368.888885,-422.500000,295.694794,-71.053551,-7.910396,591
0.000000,119.904068,407.673828,264.444458,-377.777771,-410.000000,370.318512,-66.923347,-7.770389,592
119.904068,35.971222,239.808136,286.666656,-371.111115,-397.500000,491.564575,-51.592579,-21.911097,593
239.808136,143.884888,-167.865707,300.000000,-375.555542,-382.500000,666.923340,-22.121107,-40.042004,594
287.769775,47.961628,-179.856110,331.111115,-371.111115,-370.000000,771.018555,-6.370318,-58.662933,595
215.827332,23.980814,-335.731415,353.333344,-371.111115,-340.000000,1006.930359,19.180960,-74.273712,596
299.760193,47.961628,-1822.541870,388.888885,-364.444458,-307.500000,1312.915649,41.162060,-130.486526,597
-335.731415,-335.731415,-1582.733765,426.666656,-362.222229,-250.000000,1809.800537,51.312565,-185.509277,598
-767.386047,-323.740997,-1582.733765,460.000000,-353.333344,-185.000000,2147.357422,113.405670,-233.041656,599
-527.577942,-383.693024,-2326.138916,493.333344,-333.333344,-15.000000,2292.614746,143.297165,-244.312225,600
-335.731415,-323.740997,-1738.609009,482.222229,-326.666656,77.500000,2292.754639,143.997208,-252.502625,601
-2014.388428,791.366882,-3453.237305,444.444458,-315.555542,175.000000,2292.754639,132.586624,-296.254822,602
-3117.505859,-191.846512,-1223.021484,397.777771,-311.111115,245.000000,2292.754639,421.421082,-231.711594,603
-3501.198975,-503.597107,503.597107,340.000000,-326.666656,297.500000,1984.879272,556.807861,-273.153656,604
-2721.822510,-131.894485,335.731415,306.666656,-328.888885,315.000000,1420.020996,535.246765,-346.587341,605
-1666.666626,251.798553,575.539551,266.666656,-337.777771,337.500000,1204.830200,466.783356,-267.553375,606
-1630.695313,287.769775,1055.155884,231.111115,-346.666656,345.000000,1081.204102,449.562469,-111.795593,607
-1378.896851,215.827332,779.376465,197.777771,-357.777771,355.000000,1011.410583,411.270569,-47.322365,608
-503.597107,-95.923256,215.827332,135.555557,-382.222229,357.500000,899.684998,368.008392,46.132309,609
-251.798553,47.961628,-299.760193,102.222221,-397.777771,360.000000,814.630737,328.596436,112.285614,610
239.808136,431.654663,-1247.002319,75.555557,-400.000000,352.500000,782.289124,295.204773,190.829544,611
-335.731415,0.000000,-1103.117432,40.000000,-417.777771,352.500000,742.177124,259.923004,285.964294,612
-383.693024,-383.693024,-1654.676147,15.555555,-413.333344,342.500000,648.162415,187.609375,246.972351,613
-527.577942,-371.702637,-1654.676147,-11.111111,-422.222229,342.500000,575.708801,114.595734,192.719635,614
-599.520386,-167.865707,-1870.503540,-33.333332,-422.222229,337.500000,540.217041,73.153656,131.256561,615
-575.539551,-275.779358,-1918.465088,-48.888889,-422.222229,332.500000,514.105713,59.782990,62.793140,616
-623.501160,-431.654663,-1990.407593,-82.222221,-415.555542,320.000000,455.372772,46.342319,11.900595,617
-623.501160,-359.712219,-2038.369263,-95.555557,-428.888885,322.500000,377.108856,21.771090,-27.581379,618
-575.539551,-95.923256,-2158.273193,-100.000000,-417.777771,312.500000,302.975159,0.560028,-48.932446,619
-563.549133,-71.942444,-2110.311768,-111.111115,-428.888885,315.000000,269.653473,-5.460273,-54.672733,620
-287.769775,23.980814,-1942.445923,-111.111115,-420.000000,307.500000,208.540436,-12.250612,-54.812740,621
-227.817734,155.875290,-1798.561035,-117.777779,-426.666656,312.500000,171.298569,-18.130907,-51.312565,622
-23.980814,359.712219,-1558.752930,-120.000000,-415.555542,300.000000,131.536575,-31.781590,-35.561779,623
-11.990407,335.731415,-1486.810547,-120.000000,-422.222229,305.000000,97.304863,-49.772488,-14.420721,624
143.884888,311.750580,-1318.944824,-128.888885,-415.555542,305.000000,67.553375,-66.643333,13.930696,625
179.856110,263.788971,-1306.954346,-128.888885,-413.333344,310.000000,38.711937,-78.613930,30.941547,626
191.846512,287.769775,-1270.983154,-128.888885,-406.666656,307.500000,11.900595,-84.144211,36.961849,627
191.846512,287.769775,-1306.954346,-133.333328,-413.333344,312.500000,-16.800840,-82.884148,35.491776,628
239.808136,383.693024,-1318.944824,-126.666664,-402.222229,310.000000,-36.681835,-73.783691,41.372070,629
299.760193,383.693024,-1330.935181,-131.111115,-404.444458,320.000000,-64.333214,-61.953098,43.262165,630
311.750580,167.865707,-1438.848877,-128.888885,-400.000000,312.500000,-74.693733,-37.521877,47.462372,631
443.645050,191.846512,-1462.829712,-126.666664,-397.777771,320.000000,-77.213860,-21.911097,49.282463,632
263.788971,287.769775,-1414.868042,-122.222221,-395.555542,317.500000,-76.793839,9.660483,47.252361,633
227.817734,191.846512,-1438.848877,-126.666664,-402.222229,317.500000,-79.103958,33.041653,39.551979,634
191.846512,167.865707,-1438.848877,-124.444443,-400.000000,320.000000,-69.303467,49.772488,30.521526,635
167.865707,191.846512,-1366.906372,-122.222221,-404.444458,317.500000,-63.773190,58.172909,17.360868,636
95.923256,167.865707,-1342.925659,-120.000000,-402.222229,317.500000,-61.953098,56.632832,6.160308,637
59.952034,143.884888,-1282.973511,-122.222221,-404.444458,317.500000,-57.332867,53.762688,0.560028,638
-71.942444,191.846512,-1270.983154,-115.555557,-404.444458,312.500000,-45.712288,53.832691,-1.890095,639
-59.952034,179.856110,-1258.992798,-117.777779,-411.111115,322.500000,-36.471825,54.812740,-2.170109,640
-143.884888,95.923256,-1294.963989,-111.111115,-411.111115,315.000000,-35.911797,54.462723,-1.260063,641
-155.875290,107.913666,-1282.973511,-111.111115,-415.555542,317.500000,-37.871895,51.172558,1.050053,642
-215.827332,47.961628,-1247.002319,-108.888885,-413.333344,312.500000,-40.532028,47.322365,1.960098,643
-263.788971,23.980814,-1247.002319,-108.888885,-420.000000,320.000000,-44.102207,44.662235,2.800140,644
-383.693024,23.980814,-1127.098267,-104.444443,-415.555542,312.500000,-47.602379,36.891846,1.120056,645
-371.702637,0.000000,-1103.117432,-108.888885,-424.444458,315.000000,-56.772839,28.281414,-3.150157,646
-383.693024,-23.980814,-1079.136597,-97.777779,-415.555542,312.500000,-64.543228,18.900946,-7.910396,647
-299.760193,11.990407,-1055.155884,-104.444443,-426.666656,317.500000,-70.003502,11.200561,-14.070704,648
-263.788971,119.904068,-983.213379,-95.555557,-420.000000,312.500000,-60.903046,10.990550,-10.290515,649
-299.760193,107.913666,-923.261353,-97.777779,-420.000000,317.500000,-66.013298,5.180259,-5.460273,650
-215.827332,119.904068,-911.270935,-91.111115,-415.555542,315.000000,-69.373466,-3.430171,4.340217,651
-203.836914,155.875290,-923.261353,-88.888885,-424.444458,322.500000,-71.123558,-11.200561,14.000700,652
-167.865707,119.904068,-887.290100,-86.666664,-417.777771,317.500000,-67.203362,-17.570879,20.441023,653
-119.904068,95.923256,-875.299744,-88.888885,-422.222229,322.500000,-62.653133,-24.781239,24.851242,654
-47.961628,143.884888,-863.309326,-86.666664,-413.333344,322.500000,-57.192860,-30.941547,27.441372,655
-71.942444,179.856110,-875.299744,-88.888885,-417.777771,327.500000,-53.692684,-35.001751,29.401470,656
-119.904068,167.865707,-863.309326,-84.444443,-413.333344,322.500000,-53.342667,-36.471825,29.891495,657
-95.923256,179.856110,-887.290100,-84.444443,-413.333344,325.000000,-56.142807,-37.871895,31.291565,658
-47.961628,191.846512,-887.290100,-75.555557,-406.666656,330.000000,-65.873291,-37.521877,32.901646,659
-95.923256,155.875290,-899.280518,-80.000000,-411.111115,335.000000,-78.263916,-34.441723,35.421772,660
-191.846512,47.961628,-911.270935,-77.777779,-404.444458,332.500000,-91.074554,-30.101505,37.591881,661
-179.856110,83.932854,-983.213379,-77.777779,-415.555542,337.500000,-108.155411,-29.331467,37.311867,662
-71.942444,167.865707,-1175.059937,-68.888885,-406.666656,332.500000,-118.515930,-37.241863,35.981800,663
-95.923256,131.894485,-1187.050293,-71.111115,-408.888885,337.500000,-111.025551,-46.202312,42.632133,664
-191.846512,71.942444,-1223.021484,-68.888885,-397.777771,337.500000,-113.965698,-57.682884,52.152607,665
-227.817734,71.942444,-1187.050293,-64.444443,-400.000000,345.000000,-114.035706,-62.583130,59.852993,666
-215.827332,95.923256,-1199.040771,-60.000000,-402.222229,345.000000,-116.835846,-65.173256,74.343719,667
-155.875290,191.846512,-1187.050293,-60.000000,-395.555542,347.500000,-121.596085,-66.223312,101.715088,668
-191.846512,191.846512,-1103.117432,-53.333332,-391.111115,350.000000,-115.015755,-64.823242,117.955902,669
-227.817734,71.942444,-1055.155884,-60.000000,-395.555542,352.500000,-100.665031,-61.113056,131.466568,670
-239.808136,0.000000,-1199.040771,-57.777779,-382.222229,350.000000,-79.173958,-56.562828,119.495979,671
-215.827332,-11.990407,-1115.107910,-62.222221,-388.888885,357.500000,-33.181660,-49.142456,90.934547,672
-191.846512,71.942444,-959.232544,-55.555557,-377.777771,355.000000,6.230311,-43.542179,61.533077,673
-119.904068,83.932854,-911.270935,-62.222221,-384.444458,360.000000,29.541477,-37.521877,45.782291,674
47.961628,191.846512,-959.232544,-66.666664,-380.000000,355.000000,39.972000,-30.031502,39.761990,675
47.961628,203.836914,-923.261353,-68.888885,-377.777771,362.500000,57.332867,-21.911097,42.772141,676
0.000000,119.904068,-887.290100,-71.111115,-375.555542,355.000000,78.123909,-14.280714,50.822540,677
0.000000,47.961628,-923.261353,-82.222221,-377.777771,362.500000,91.214561,-10.080504,50.262512,678
-167.865707,0.000000,-935.251770,-80.000000,-371.111115,355.000000,100.735039,-7.700385,43.682186,679
-155.875290,131.894485,-935.251770,-82.222221,-377.777771,360.000000,93.104660,-15.050753,33.881695,680
-191.846512,0.000000,-911.270935,-88.888885,-368.888885,350.000000,86.594330,-19.040953,38.991951,681
-299.760193,-47.961628,-863.309326,-93.333336,-375.555542,357.500000,72.173607,-14.700735,41.582081,682
-383.693024,0.000000,-1055.155884,-95.555557,-371.111115,355.000000,49.562477,-10.010501,34.931747,683
-383.693024,-23.980814,-1103.117432,-93.333336,-371.111115,352.500000,34.021702,-11.550578,23.591179,684
-383.693024,23.980814,-1055.155884,-95.555557,-366.666656,352.500000,28.981449,-14.000700,17.150858,685
-395.683441,0.000000,-1055.155884,-102.222221,-375.555542,352.500000,22.611132,-14.630732,13.160658,686
-359.712219,-47.961628,-1079.136597,-95.555557,-368.888885,352.500000,9.240462,-13.650682,13.090654,687
-359.712219,-23.980814,-1079.136597,-97.777779,-371.111115,362.500000,-9.870494,-16.100805,15.750788,688
-287.769775,47.961628,-1127.098267,-100.000000,-364.444458,355.000000,-21.491076,-18.970949,16.870844,689
-311.750580,11.990407,-1151.079102,-102.222221,-368.888885,360.000000,-21.701086,-23.941196,16.940847,690
-335.731415,71.942444,-887.290100,-95.555557,-368.888885,355.000000,-22.331118,-24.991249,14.140707,691
-275.779358,119.904068,-659.472412,-97.777779,-366.666656,360.000000,-66.783340,-7.840392,5.600280,692
23.980814,167.865707,-1151.079102,-93.333336,-362.222229,355.000000,-79.173958,-10.290515,21.981100,693
-23.980814,71.942444,-1055.155884,-100.000000,-368.888885,362.500000,-69.233459,-13.370668,30.941547,694
-23.980814,95.923256,-1007.194214,-86.666664,-362.222229,357.500000,-52.362617,-15.470774,34.931747,695
-23.980814,95.923256,-1043.165405,-93.333336,-364.444458,365.000000,-40.672035,-16.660833,35.701786,696
-23.980814,-47.961628,-1103.117432,-88.888885,-357.777771,362.500000,-35.701786,-20.091005,37.871895,697
-23.980814,35.971222,-1031.175049,-93.333336,-364.444458,365.000000,-23.381168,-21.421072,36.191811,698
-47.961628,0.000000,-1055.155884,-91.111115,-357.777771,360.000000,-12.740637,-20.861044,34.721737,699
-47.961628,-11.990407,-1115.107910,-91.111115,-357.777771,365.000000,-7.700385,-18.410921,35.981800,700
-167.865707,119.904068,-1103.117432,-93.333336,-360.000000,362.500000,-10.500525,-21.561079,39.621983,701
-215.827332,95.923256,-1199.040771,-93.333336,-360.000000,367.500000,-19.040953,-30.731537,45.152260,702
-191.846512,-23.980814,-1175.059937,-91.111115,-344.444458,365.000000,-14.000700,-36.611832,50.682533,703
-347.721802,11.990407,-1211.031128,-93.333336,-353.333344,367.500000,-22.331118,-52.572628,53.832691,704
-383.693024,-167.865707,-1199.040771,-88.888885,-344.444458,365.000000,-10.220511,-56.002800,60.133007,705
-359.712219,-119.904068,-1103.117432,-91.111115,-351.111115,370.000000,-14.560728,-57.402870,58.382919,706
-359.712219,-167.865707,-1175.059937,-93.333336,-337.777771,367.500000,-29.401470,-63.563179,48.232410,707
-383.693024,-155.875290,-1091.127075,-91.111115,-340.000000,372.500000,-38.081905,-66.853340,34.021702,708
-407.673828,0.000000,-1151.079102,-91.111115,-333.333344,375.000000,-45.502277,-64.403221,14.700735,709
-395.683441,-11.990407,-1079.136597,-88.888885,-333.333344,380.000000,-35.981800,-58.872944,-1.330067,710
-407.673828,71.942444,-1031.175049,-88.888885,-331.111115,372.500000,-27.091354,-54.252712,-10.430522,711
-383.693024,23.980814,-995.203796,-88.888885,-333.333344,382.500000,-22.611132,-52.782639,-15.050753,712
-239.808136,0.000000,-1031.175049,-84.444443,-322.222229,377.500000,-21.771090,-52.502625,-18.130907,713
-227.817734,35.971222,-1019.184631,-88.888885,-328.888885,382.500000,-20.161009,-49.772488,-19.670984,714
-191.846512,-47.961628,-1007.194214,-84.444443,-324.444458,385.000000,-10.080504,-38.501926,-18.060904,715
-167.865707,107.913666,-983.213379,-86.666664,-331.111115,382.500000,-7.700385,-31.641582,-18.690935,716
-143.884888,0.000000,-983.213379,-82.222221,-320.000000,382.500000,0.140007,-21.281065,-21.281065,717
-107.913666,0.000000,-947.242188,-80.000000,-326.666656,382.500000,-2.030102,-18.550928,-21.491076,718
-95.923256,95.923256,-1031.175049,-77.777779,-320.000000,380.000000,-8.400420,-14.420721,-21.351068,719
-131.894485,71.942444,-1031.175049,-82.222221,-328.888885,385.000000,-9.380469,-8.540427,-15.470774,720
-167.865707,0.000000,-983.213379,-77.777779,-324.444458,380.000000,-6.020301,0.420021,-4.760238,721
-203.836914,47.961628,-995.203796,-84.444443,-326.666656,387.500000,-11.060554,4.830242,2.170109,722
-215.827332,47.961628,-935.251770,-75.555557,-326.666656,380.000000,-13.440672,9.030452,8.960448,723
-215.827332,11.990407,-923.261353,-80.000000,-328.888885,390.000000,-18.480925,13.370668,15.190760,724
-191.846512,119.904068,-887.290100,-82.222221,-326.666656,385.000000,-22.681135,16.800840,21.211061,725
-227.817734,59.952034,-899.280518,-77.777779,-324.444458,382.500000,-23.381168,22.051104,22.471125,726
-263.788971,0.000000,-863.309326,-73.333336,-324.444458,385.000000,-21.701086,27.651382,19.880995,727
-227.817734,-11.990407,-959.232544,-77.777779,-333.333344,382.500000,-16.240812,31.991600,15.610781,728
-191.846512,0.000000,-1055.155884,-75.555557,-326.666656,380.000000,-4.270214,34.161709,12.740637,729
-227.817734,-35.971222,-1055.155884,-77.777779,-333.333344,382.500000,9.170459,33.321667,11.060554,730
-287.769775,0.000000,-1103.117432,-80.000000,-328.888885,377.500000,14.770739,31.781590,10.080504,731
-311.750580,-35.971222,-1067.146240,-77.777779,-331.111115,382.500000,22.681135,27.231361,10.430522,732
-383.693024,-95.923256,-1055.155884,-82.222221,-331.111115,380.000000,24.851242,22.401121,8.890445,733
-347.721802,-71.942444,-1055.155884,-80.000000,-331.111115,380.000000,21.351068,18.900946,6.650332,734
-335.731415,0.000000,-1055.155884,-82.222221,-333.333344,377.500000,15.330767,15.330767,2.170109,735
-275.779358,-11.990407,-1043.165405,-86.666664,-333.333344,382.500000,12.810640,12.880644,-1.820091,736
-239.808136,0.000000,-1055.155884,-82.222221,-333.333344,380.000000,14.070704,10.850543,-3.500175,737
-227.817734,0.000000,-1055.155884,-84.444443,-337.777771,382.500000,10.290515,5.810291,-2.870144,738
-203.836914,-71.942444,-1079.136597,-84.444443,-328.888885,372.500000,5.600280,0.490025,-2.310116,739
-239.808136,-71.942444,-1127.098267,-84.444443,-340.000000,382.500000,0.700035,-3.710186,-5.110256,740
-215.827332,-95.923256,-1115.107910,-80.000000,-333.333344,375.000000,10.010501,-1.750087,-20.791040,741
-167.865707,23.980814,-1079.136597,-82.222221,-337.777771,380.000000,10.150508,-3.500175,-24.781239,742
-191.846512,0.000000,-1127.098267,-86.666664,-337.777771,377.500000,13.020651,-1.750087,-26.881344,743
-191.846512,47.961628,-1055.155884,-86.666664,-344.444458,380.000000,15.540777,0.770038,-29.401470,744
-215.827332,35.971222,-1055.155884,-82.222221,-331.111115,377.500000,17.920897,3.640182,-25.341267,745
-191.846512,47.961628,-1007.194214,-88.888885,-340.000000,380.000000,19.810991,5.390270,-24.501225,746
-191.846512,47.961628,-995.203796,-82.222221,-333.333344,377.500000,20.721037,8.400420,-22.681135,747
-191.846512,71.942444,-1007.194214,-86.666664,-342.222229,380.000000,15.610781,9.100455,-20.511026,748
-203.836914,71.942444,-1031.175049,-84.444443,-337.777771,377.500000,15.540777,11.270564,-23.171160,749
-239.808136,95.923256,-1055.155884,-84.444443,-340.000000,380.000000,13.930696,10.430522,-21.841093,750
-203.836914,35.971222,-1055.155884,-86.666664,-342.222229,377.500000,8.330417,6.160308,-16.310816,751
-215.827332,47.961628,-1103.117432,-84.444443,-342.222229,380.000000,0.280014,0.630032,-8.050403,752
-227.817734,11.990407,-1115.107910,-84.444443,-340.000000,377.500000,-9.030452,-5.950297,2.590130,753
-191.846512,47.961628,-1079.136597,-86.666664,-344.444458,380.000000,-10.850543,-8.470424,6.580329,754
-227.817734,35.971222,-1055.155884,-84.444443,-333.333344,375.000000,-10.920547,-9.100455,8.050403,755
-215.827332,0.000000,-1031.175049,-84.444443,-340.000000,377.500000,-12.390619,-10.010501,7.980399,756
-251.798553,11.990407,-1031.175049,-82.222221,-337.777771,375.000000,-11.970598,-9.520476,5.040252,757
-239.808136,-23.980814,-1055.155884,-84.444443,-344.444458,377.500000,-3.570179,-6.440322,-1.680084,758
-227.817734,-11.990407,-1043.165405,-86.666664,-337.777771,375.000000,9.170459,-3.710186,-6.650332,759
-215.827332,0.000000,-959.232544,-86.666664,-337.777771,377.500000,13.720686,-2.800140,-9.520476,760
-203.836914,0.000000,-971.222961,-88.888885,-331.111115,375.000000,7.980399,-2.170109,-11.410571,761
-191.846512,23.980814,-1031.175049,-86.666664,-342.222229,380.000000,7.700385,2.240112,-11.760588,762
-191.846512,-11.990407,-1007.194214,-84.444443,-331.111115,377.500000,15.890795,5.460273,-13.370668,763
-191.846512,0.000000,-959.232544,-88.888885,-344.444458,377.500000,20.441023,7.420371,-17.150858,764
-191.846512,11.990407,-911.270935,-84.444443,-333.333344,375.000000,17.220861,7.910396,-21.841093,765
-119.904068,47.961628,-911.270935,-88.888885,-344.444458,377.500000,10.430522,9.310466,-24.501225,766
-167.865707,23.980814,-851.318909,-86.666664,-340.000000,375.000000,5.250263,10.920547,-27.301365,767
-143.884888,0.000000,-791.366882,-86.666664,-337.777771,377.500000,3.220161,15.890795,-28.631432,768
-119.904068,-11.990407,-815.347656,-86.666664,-342.222229,370.000000,-4.410221,21.561079,-28.421421,769
-335.731415,-47.961628,-1007.194214,-84.444443,-344.444458,380.000000,-13.720686,22.121107,-29.471474,770
-419.664246,-215.827332,-1055.155884,-82.222221,-342.222229,375.000000,-29.331467,12.600630,-24.571228,771
-191.846512,-191.846512,-1318.944824,-82.222221,-351.111115,377.500000,-41.442074,-3.780189,-12.530626,772
-359.712219,-95.923256,-1330.935181,-82.222221,-340.000000,375.000000,-31.291565,-25.761288,2.590130,773
-503.597107,-119.904068,-1462.829712,-80.000000,-344.444458,377.500000,-13.370668,-27.861393,16.030802,774
-407.673828,-71.942444,-1306.954346,-80.000000,-337.777771,377.500000,-10.010501,-28.981449,15.820791,775
-263.788971,-167.865707,-1175.059937,-80.000000,-340.000000,382.500000,-11.550578,-29.961498,18.690935,776
-203.836914,-35.971222,-1199.040771,-82.222221,-340.000000,377.500000,-2.030102,-21.911097,24.781239,777
-167.865707,71.942444,-1151.079102,-82.222221,-342.222229,380.000000,17.500875,-17.710886,24.011200,778
-551.558716,-119.904068,-995.203796,-82.222221,-337.777771,377.500000,31.151558,-11.690584,22.401121,779
359.712219,47.961628,-911.270935,-86.666664,-342.222229,380.000000,34.091705,-11.830591,30.521526,780
47.961628,143.884888,-803.357300,-84.444443,-333.333344,377.500000,42.702137,-9.170459,15.820791,781
-191.846512,-23.980814,-1055.155884,-91.111115,-335.555542,377.500000,45.782291,-7.280364,20.721037,782
-155.875290,0.000000,-971.222961,-84.444443,-335.555542,377.500000,39.131958,6.020301,10.080504,783
-191.846512,-119.904068,-671.462830,-93.333336,-340.000000,382.500000,36.961849,14.350718,4.760238,784
-191.846512,-35.971222,-731.414856,-91.111115,-337.777771,377.500000,42.142109,9.590480,8.190410,785
-167.865707,-23.980814,-959.232544,-93.333336,-337.777771,377.500000,51.102554,5.530277,8.470424,786
-191.846512,-35.971222,-947.242188,-93.333336,-335.555542,367.500000,54.532726,3.990200,6.370318,787
-215.827332,-95.923256,-911.270935,-104.444443,-342.222229,377.500000,49.002449,5.670284,1.470073,788
-215.827332,-59.952034,-971.222961,-102.222221,-328.888885,370.000000,39.481976,9.590480,-3.430171,789
-215.827332,-47.961628,-1031.175049,-108.888885,-340.000000,375.000000,32.061604,13.020651,-6.300315,790
-203.836914,-59.952034,-1067.146240,-102.222221,-337.777771,367.500000,25.481274,17.220861,-6.860343,791
-215.827332,0.000000,-1199.040771,-104.444443,-342.222229,377.500000,22.891146,19.460974,-6.720336,792
-191.846512,0.000000,-1175.059937,-104.444443,-337.777771,367.500000,18.200911,25.061253,-5.600280,793
-215.827332,0.000000,-1223.021484,-104.444443,-337.777771,372.500000,12.880644,28.001400,-5.320266,794
-203.836914,-23.980814,-1211.031128,-106.666664,-337.777771,367.500000,4.620231,27.791389,-6.930346,795
-191.846512,23.980814,-1247.002319,-104.444443,-344.444458,372.500000,0.000000,26.111305,-7.280364,796
-191.846512,0.000000,-1270.983154,-106.666664,-344.444458,367.500000,0.280014,25.761288,-6.860343,797
-167.865707,0.000000,-1103.117432,-108.888885,-348.888885,367.500000,0.350018,24.501225,-8.400420,798
-131.894485,-11.990407,-1055.155884,-100.000000,-342.222229,365.000000,-3.920196,17.080854,-12.110605,799
-95.923256,23.980814,-1079.136597,-106.666664,-351.111115,370.000000,-7.280364,7.770389,-18.830942,800
-59.952034,23.980814,-1019.184631,-104.444443,-342.222229,365.000000,-9.590480,1.960098,-23.451172,801
-47.961628,0.000000,-983.213379,-102.222221,-346.666656,367.500000,-12.460623,-1.820091,-27.301365,802
-107.913666,11.990407,-947.242188,-104.444443,-342.222229,362.500000,-11.480575,-3.780189,-27.651382,803
-95.923256,71.942444,-959.232544,-104.444443,-351.111115,370.000000,-5.950297,-3.850193,-28.281414,804
-143.884888,119.904068,-983.213379,-104.444443,-344.444458,362.500000,-1.470073,-3.780189,-26.741337,805
-47.961628,143.884888,-1031.175049,-102.222221,-351.111115,372.500000,8.750438,-5.950297,-23.381168,806
-59.952034,131.894485,-1055.155884,-97.777779,-342.222229,365.000000,13.930696,-6.510325,-27.161358,807
-119.904068,143.884888,-1151.079102,-104.444443,-353.333344,370.000000,22.681135,0.910046,-24.081203,808
-107.913666,143.884888,-1103.117432,-97.777779,-342.222229,360.000000,33.741688,6.510325,-23.521175,809
-407.673828,167.865707,-887.290100,-100.000000,-351.111115,370.000000,39.761990,10.220511,-23.451172,810
-479.616272,-11.990407,-791.366882,-104.444443,-348.888885,362.500000,56.562828,-6.440322,-1.120056,811
-215.827332,-191.846512,-911.270935,-108.888885,-351.111115,365.000000,63.073154,-8.050403,8.680434,812
-359.712219,-23.980814,-959.232544,-108.888885,-344.444458,362.500000,32.481625,1.470073,-6.860343,813
-215.827332,0.000000,-1079.136597,-111.111115,-351.111115,367.500000,-0.350018,12.460623,-12.810640,814
-203.836914,11.990407,-1043.165405,-108.888885,-348.888885,360.000000,-8.050403,15.540777,-14.490725,815
-95.923256,95.923256,-1031.175049,-108.888885,-355.555542,365.000000,-12.810640,11.620582,-14.490725,816
-143.884888,35.971222,-1007.194214,-106.666664,-346.666656,360.000000,-14.910746,7.910396,-14.980749,817
-191.846512,-23.980814,-1079.136597,-106.666664,-355.555542,365.000000,-14.700735,3.780189,-16.380819,818
-191.846512,0.000000,-1067.146240,-106.666664,-351.111115,362.500000,-13.160658,7.070354,-16.660833,819
-143.884888,23.980814,-1055.155884,-97.777779,-353.333344,365.000000,-11.900595,12.180609,-16.030802,820
-167.865707,11.990407,-1055.155884,-100.000000,-351.111115,360.000000,-10.640532,18.620932,-14.420721,821
-215.827332,0.000000,-1175.059937,-104.444443,-357.777771,362.500000,-8.890445,21.561079,-10.710536,822
-227.817734,11.990407,-1115.107910,-102.222221,-353.333344,357.500000,-6.370318,22.961149,-9.100455,823
-239.808136,0.000000,-1031.175049,-102.222221,-357.777771,360.000000,-5.950297,26.811340,-7.070354,824
-203.836914,47.961628,-1067.146240,-104.444443,-355.555542,360.000000,11.690584,16.170809,2.310116,825
-263.788971,0.000000,-959.232544,-106.666664,-362.222229,360.000000,13.650682,24.501225,3.640182,826
-215.827332,0.000000,-995.203796,-108.888885,-355.555542,352.500000,19.250963,21.561079,8.190410,827
-215.827332,-23.980814,-959.232544,-104.444443,-357.777771,355.000000,23.591179,17.780890,9.170459,828
-167.865707,0.000000,-947.242188,-111.111115,-351.111115,360.000000,24.151207,15.260763,9.870494,829
-119.904068,0.000000,-959.232544,-111.111115,-360.000000,355.000000,25.271263,9.940497,10.640532,830
-59.952034,47.961628,-995.203796,-108.888885,-355.555542,355.000000,25.481274,6.510325,10.920547,831
-95.923256,143.884888,-1031.175049,-113.333336,-362.222229,352.500000,21.281065,8.540427,7.630382,832
-59.952034,11.990407,-971.222961,-111.111115,-357.777771,350.000000,12.880644,9.380469,3.570179,833
47.961628,143.884888,-1079.136597,-117.777779,-362.222229,355.000000,3.010150,7.910396,6.510325,834
-71.942444,71.942444,-1043.165405,-111.111115,-357.777771,350.000000,-0.350018,2.800140,-4.200210,835
-191.846512,47.961628,-1055.155884,-111.111115,-357.777771,352.500000,-1.260063,-2.520126,-2.660133,836
-179.856110,71.942444,-1055.155884,-111.111115,-353.333344,352.500000,1.120056,-5.250263,0.140007,837
-215.827332,-23.980814,-1031.175049,-113.333336,-362.222229,357.500000,4.690235,-6.300315,-1.120056,838
-191.846512,23.980814,-1019.184631,-108.888885,-355.555542,352.500000,5.600280,-5.460273,0.700035,839
-167.865707,0.000000,-1007.194214,-113.333336,-357.777771,352.500000,2.800140,-1.400070,3.010150,840
-203.836914,-11.990407,-1007.194214,-115.555557,-353.333344,355.000000,1.050053,2.030102,5.110256,841
-359.712219,0.000000,-1103.117432,-117.777779,-360.000000,355.000000,-3.360168,8.540427,6.580329,842
-311.750580,-11.990407,-1079.136597,-108.888885,-355.555542,347.500000,-9.100455,15.680784,8.120406,843
-335.731415,-71.942444,-1055.155884,-115.555557,-355.555542,355.000000,-14.770739,17.360868,10.080504,844
-227.817734,-35.971222,-1067.146240,-111.111115,-360.000000,350.000000,-20.861044,10.360518,14.000700,845
-215.827332,-23.980814,-1055.155884,-106.666664,-357.777771,355.000000,-25.131256,3.570179,17.430872,846
-203.836914,-11.990407,-1055.155884,-108.888885,-355.555542,350.000000,-29.751488,3.640182,23.031153,847
-167.865707,0.000000,-1031.175049,-108.888885,-357.777771,355.000000,-32.061604,7.700385,25.901295,848
-155.875290,-11.990407,-971.222961,-108.888885,-353.333344,352.500000,-30.311516,19.530977,23.941196,849
-95.923256,71.942444,-1055.155884,-113.333336,-357.777771,355.000000,-19.880995,27.931396,20.441023,850
-119.904068,-95.923256,-983.213379,-108.888885,-353.333344,347.500000,-0.490025,33.881695,-3.220161,851
-119.904068,-71.942444,-1031.175049,-111.111115,-364.444458,352.500000,0.000000,20.231012,9.170459,852
-23.980814,71.942444,-1007.194214,-111.111115,-362.222229,352.500000,2.100105,6.160308,18.060904,853
-71.942444,23.980814,-911.270935,-111.111115,-362.222229,352.500000,6.720336,-1.400070,17.640882,854
-95.923256,35.971222,-911.270935,-113.333336,-355.555542,352.500000,15.190760,-16.660833,18.830942,855
-71.942444,23.980814,-911.270935,-113.333336,-360.000000,352.500000,22.891146,-24.151207,19.180960,856
-119.904068,59.952034,-899.280518,-111.111115,-353.333344,350.000000,29.541477,-24.921246,20.791040,857
-95.923256,1247.002319,-767.386047,-115.555557,-357.777771,352.500000,39.341969,-20.301016,14.070704,858
-191.846512,143.884888,-839.328491,-117.777779,-353.333344,347.500000,71.963600,-27.581379,-39.341969,859
-227.817734,107.913666,-995.203796,-122.222221,-357.777771,350.000000,82.814140,-27.161358,-40.602032,860
-71.942444,47.961628,-887.290100,-120.000000,-355.555542,347.500000,79.944000,-20.441023,-39.831993,861
-71.942444,23.980814,-947.242188,-124.444443,-355.555542,345.000000,69.653481,-12.390619,-34.581730,862
-143.884888,0.000000,-959.232544,-124.444443,-348.888885,340.000000,57.892895,-8.540427,-31.781590,863
-47.961628,23.980814,-1019.184631,-131.111115,-355.555542,345.000000,45.992302,-3.150157,-25.691284,864
-95.923256,47.961628,-1055.155884,-126.666664,-351.111115,342.500000,31.361568,5.460273,-19.740988,865
-119.904068,-47.961628,-1067.146240,-131.111115,-357.777771,347.500000,23.381168,9.170459,-15.680784,866
-119.904068,0.000000,-1007.194214,-128.888885,-351.111115,337.500000,2.240112,8.820441,-2.030102,867
-107.913666,23.980814,-1019.184631,-133.333328,-360.000000,342.500000,-6.090304,17.780890,0.980049,868
-47.961628,-23.980814,-1007.194214,-128.888885,-355.555542,337.500000,-7.210361,20.931047,-6.930346,869
-71.942444,11.990407,-1007.194214,-128.888885,-362.222229,340.000000,0.280014,23.941196,-16.310816,870
-95.923256,23.980814,-983.213379,-126.666664,-357.777771,335.000000,4.900245,25.341267,-21.491076,871
-107.913666,-11.990407,-1007.194214,-131.111115,-362.222229,340.000000,4.060203,30.241512,-20.301016,872
-119.904068,23.980814,-1007.194214,-126.666664,-355.555542,332.500000,9.520476,23.731186,-18.550928,873
-47.961628,23.980814,-1019.184631,-131.111115,-364.444458,340.000000,19.040953,14.700735,-21.561079,874
71.942444,95.923256,-1031.175049,-128.888885,-357.777771,330.000000,29.751488,11.270564,-26.041302,875
35.971222,119.904068,-1043.165405,-131.111115,-364.444458,335.000000,37.381870,11.200561,-26.951347,876
47.961628,143.884888,-1031.175049,-128.888885,-357.777771,332.500000,43.472176,12.040602,-24.991249,877
47.961628,71.942444,-1043.165405,-133.333328,-364.444458,332.500000,47.392368,12.600630,-20.091005,878
-23.980814,95.923256,-1055.155884,-133.333328,-360.000000,332.500000,53.902695,13.300665,-19.530977,879
23.980814,35.971222,-1067.146240,-135.555557,-371.111115,327.500000,53.762688,11.970598,-18.270914,880
0.000000,0.000000,-1079.136597,-135.555557,-362.222229,322.500000,48.162407,18.830942,-14.910746,881
-35.971222,0.000000,-1115.107910,-135.555557,-366.666656,330.000000,46.622330,11.760588,-16.100805,882
-143.884888,0.000000,-1103.117432,-135.555557,-362.222229,322.500000,46.972347,13.510675,-17.150858,883
-143.884888,-47.961628,-1115.107910,-142.222229,-368.888885,327.500000,52.992649,12.810640,-17.570879,884
-191.846512,0.000000,-1199.040771,-142.222229,-366.666656,317.500000,50.822540,3.570179,-15.890795,885
-191.846512,-47.961628,-1247.002319,-144.444443,-368.888885,322.500000,39.691986,-8.540427,-10.360518,886
-239.808136,-47.961628,-1270.983154,-142.222229,-364.444458,322.500000,27.721386,-17.080854,-6.370318,887
-215.827332,-35.971222,-1223.021484,-142.222229,-368.888885,320.000000,19.950998,-19.950998,-4.410221,888
-167.865707,0.000000,-1223.021484,-146.666672,-360.000000,317.500000,14.420721,-20.161009,-3.360168,889
-131.894485,23.980814,-1211.031128,-144.444443,-366.666656,325.000000,12.320616,-23.661182,-2.240112,890
-47.961628,95.923256,-1127.098267,-142.222229,-357.777771,317.500000,11.970598,-25.831291,-2.310116,891
-47.961628,71.942444,-1079.136597,-146.666672,-366.666656,320.000000,9.450473,-27.021351,-1.820091,892
0.000000,95.923256,-983.213379,-142.222229,-355.555542,315.000000,7.140357,-24.991249,-2.310116,893
35.971222,71.942444,-983.213379,-146.666672,-362.222229,320.000000,6.300315,-23.381168,-4.270214,894
71.942444,215.827332,-911.270935,-144.444443,-364.444458,317.500000,6.790339,-18.270914,-6.230311,895
35.971222,119.904068,-923.261353,-142.222229,-357.777771,320.000000,11.200561,-11.410571,-8.470424,896
-23.980814,95.923256,-983.213379,-144.444443,-357.777771,317.500000,16.030802,-6.790339,-10.850543,897
-59.952034,59.952034,-1019.184631,-151.111115,-360.000000,322.500000,21.141058,-5.250263,-10.500525,898
-47.961628,23.980814,-1031.175049,-142.222229,-353.333344,315.000000,26.111305,-1.960098,-8.400420,899
-59.952034,35.971222,-1043.165405,-146.666672,-362.222229,317.500000,27.021351,-0.210010,-7.770389,900
-119.904068,23.980814,-1103.117432,-148.888885,-357.777771,310.000000,25.201260,-1.260063,-7.420371,901
-95.923256,23.980814,-1091.127075,-151.111115,-364.444458,317.500000,25.901295,-0.840042,-4.410221,902
-71.942444,71.942444,-1079.136597,-148.888885,-360.000000,315.000000,27.371368,-1.540077,-3.430171,903
-47.961628,59.952034,-1067.146240,-148.888885,-357.777771,317.500000,27.861393,-4.060203,-1.680084,904
-23.980814,23.980814,-1031.175049,-151.111115,-355.555542,310.000000,26.881344,-5.880294,1.610080,905
-11.990407,47.961628,-1031.175049,-151.111115,-362.222229,310.000000,25.271263,-5.810291,2.380119,906
23.980814,47.961628,-1055.155884,-146.666672,-355.555542,307.500000,22.821142,-3.220161,1.120056,907
-23.980814,47.961628,-1067.146240,-153.333328,-357.777771,312.500000,21.001051,-0.490025,-1.540077,908
-71.942444,0.000000,-1079.136597,-151.111115,-357.777771,310.000000,17.430872,3.010150,-4.410221,909
-35.971222,11.990407,-1067.146240,-153.333328,-364.444458,312.500000,11.970598,5.950297,-7.560378,910
-23.980814,23.980814,-1079.136597,-151.111115,-357.777771,307.500000,9.100455,8.260413,-9.520476,911
-35.971222,11.990407,-1115.107910,-151.111115,-360.000000,310.000000,7.140357,10.780540,-11.130557,912
0.000000,47.961628,-1031.175049,-153.333328,-357.777771,310.000000,2.170109,16.520826,-11.410571,913
0.000000,35.971222,-1151.079102,-153.333328,-366.666656,305.000000,-11.410571,41.442074,-8.470424,914
-95.923256,0.000000,-1223.021484,-151.111115,-362.222229,302.500000,-11.410571,35.911797,-11.340568,915
-71.942444,23.980814,-1258.992798,-148.888885,-366.666656,307.500000,-10.780540,14.840742,-12.460623,916
-47.961628,23.980814,-1247.002319,-146.666672,-355.555542,305.000000,-11.410571,9.170459,-14.070704,917
-71.942444,11.990407,-1247.002319,-148.888885,-368.888885,310.000000,-12.600630,3.430171,-12.320616,918
-167.865707,0.000000,-1223.021484,-146.666672,-362.222229,305.000000,-14.840742,-3.220161,-9.520476,919
-95.923256,0.000000,-1175.059937,-146.666672,-362.222229,307.500000,-15.820791,-7.000350,-6.230311,920
0.000000,71.942444,-1103.117432,-146.666672,-362.222229,305.000000,-13.020651,-10.080504,-4.550228,921
-11.990407,59.952034,-1115.107910,-144.444443,-364.444458,307.500000,-12.320616,-12.740637,-3.430171,922
0.000000,47.961628,-1103.117432,-142.222229,-362.222229,305.000000,-12.390619,-13.090654,-2.450123,923
35.971222,47.961628,-1091.127075,-146.666672,-364.444458,310.000000,-11.970598,-13.090654,-2.030102,924
47.961628,0.000000,-1127.098267,-140.000000,-357.777771,307.500000,-10.640532,-12.040602,-0.770038,925
23.980814,59.952034,-1103.117432,-146.666672,-364.444458,310.000000,-9.100455,-13.510675,0.210010,926
-23.980814,71.942444,-1103.117432,-140.000000,-355.555542,305.000000,-7.420371,-14.630732,0.560028,927
-47.961628,59.952034,-1115.107910,-144.444443,-364.444458,310.000000,-7.490375,-14.770739,-0.070004,928
0.000000,0.000000,-1175.059937,-142.222229,-360.000000,310.000000,-8.330417,-13.930696,-0.490025,929
0.000000,0.000000,-1139.088623,-137.777771,-360.000000,307.500000,-8.610431,-15.750788,-0.910046,930
0.000000,23.980814,-1103.117432,-142.222229,-353.333344,307.500000,-7.770389,-17.990900,-0.980049,931
0.000000,23.980814,-1067.146240,-146.666672,-364.444458,312.500000,-6.720336,-19.600981,-2.170109,932
0.000000,23.980814,-1103.117432,-140.000000,-353.333344,307.500000,-3.780189,-21.771090,-4.340217,933
23.980814,23.980814,-1055.155884,-142.222229,-360.000000,312.500000,-1.750087,-23.101156,-3.290164,934
0.000000,23.980814,-1103.117432,-137.777771,-351.111115,310.000000,-3.710186,-23.521175,-2.030102,935
-11.990407,11.990407,-1091.127075,-144.444443,-357.777771,312.500000,-6.370318,-24.571228,-0.770038,936
0.000000,47.961628,-1079.136597,-142.222229,-355.555542,310.000000,-8.820441,-24.361217,-1.050053,937
-11.990407,11.990407,-1091.127075,-144.444443,-355.555542,312.500000,-10.920547,-23.311165,-2.310116,938
-23.980814,0.000000,-1103.117432,-137.777771,-348.888885,310.000000,-12.600630,-23.171160,-3.360168,939
-47.961628,11.990407,-1091.127075,-142.222229,-355.555542,312.500000,-13.720686,-23.381168,-4.130207,940
-143.884888,23.980814,-1103.117432,-137.777771,-348.888885,310.000000,-15.610781,-21.421072,-4.620231,941
-143.884888,11.990407,-1103.117432,-140.000000,-355.555542,315.000000,-17.080854,-19.250963,-4.200210,942
-167.865707,47.961628,-1151.079102,-137.777771,-348.888885,310.000000,-17.150858,-17.710886,-4.620231,943
-167.865707,23.980814,-1127.098267,-137.777771,-353.333344,317.500000,-16.590830,-16.800840,-3.360168,944
-119.904068,23.980814,-1103.117432,-135.555557,-346.666656,312.500000,-17.710886,-16.800840,-2.100105,945
-119.904068,0.000000,-1103.117432,-133.333328,-351.111115,317.500000,-19.600981,-14.770739,-0.980049,946
-71.942444,23.980814,-1055.155884,-140.000000,-351.111115,315.000000,-19.460974,-13.160658,-0.560028,947
-35.971222,11.990407,-1043.165405,-135.555557,-353.333344,317.500000,-19.180960,-11.060554,-2.170109,948
-71.942444,23.980814,-1055.155884,-133.333328,-346.666656,315.000000,-14.630732,-10.500525,-3.640182,949
-35.971222,23.980814,-1043.165405,-133.333328,-351.111115,320.000000,-7.490375,-8.540427,-3.710186,950
0.000000,0.000000,-1031.175049,-133.333328,-348.888885,315.000000,-4.410221,-7.280364,-3.430171,951
0.000000,23.980814,-1055.155884,-135.555557,-346.666656,317.500000,-3.780189,-7.420371,-2.660133,952
-95.923256,23.980814,-1055.155884,-131.111115,-344.444458,320.000000,-2.380119,-7.980399,-1.960098,953
-35.971222,11.990407,-1103.117432,-133.333328,-348.888885,320.000000,-1.400070,-9.100455,-1.330067,954
-47.961628,-23.980814,-1103.117432,-135.555557,-348.888885,315.000000,-2.170109,-9.170459,-0.910046,955
-23.980814,-11.990407,-1091.127075,-133.333328,-348.888885,317.500000,-2.730137,-7.840392,-0.840042,956
-95.923256,-23.980814,-1127.098267,-131.111115,-348.888885,312.500000,-3.430171,-7.070354,-1.330067,957
-83.932854,-23.980814,-1163.069458,-133.333328,-346.666656,317.500000,-5.250263,-5.180259,-1.260063,958
-95.923256,47.961628,-1031.175049,-131.111115,-344.444458,315.000000,-3.850193,-7.070354,-2.170109,959
-95.923256,0.000000,-1115.107910,-131.111115,-353.333344,320.000000,-0.560028,-10.920547,-1.540077,960
-95.923256,-23.980814,-1151.079102,-131.111115,-342.222229,312.500000,-6.650332,-8.260413,1.120056,961
-95.923256,-71.942444,-1151.079102,-133.333328,-346.666656,320.000000,-9.870494,-5.950297,1.820091,962
-119.904068,-23.980814,-1103.117432,-131.111115,-342.222229,317.500000,-6.510325,-5.530277,0.700035,963
-71.942444,0.000000,-1091.127075,-131.111115,-344.444458,320.000000,-3.500175,-5.110256,-1.960098,964
0.000000,23.980814,-1079.136597,-128.888885,-342.222229,320.000000,-1.610080,-6.090304,-2.240112,965
11.990407,-11.990407,-1055.155884,-133.333328,-348.888885,320.000000,3.150157,-5.530277,-2.310116,966
-71.942444,23.980814,-1031.175049,-133.333328,-342.222229,322.500000,6.090304,-5.250263,-3.850193,967
-59.952034,0.000000,-1055.155884,-133.333328,-348.888885,320.000000,6.720336,-4.340217,-4.690235,968
-95.923256,23.980814,-1079.136597,-131.111115,-342.222229,317.500000,6.160308,-3.080154,-5.110256,969
-95.923256,11.990407,-1043.165405,-133.333328,-351.111115,322.500000,5.250263,-2.520126,-5.670284,970
0.000000,-23.980814,-983.213379,-135.555557,-344.444458,317.500000,5.250263,-2.940147,-6.510325,971
-11.990407,83.932854,-887.290100,-131.111115,-342.222229,317.500000,7.420371,-3.360168,-6.580329,972
-71.942444,23.980814,-959.232544,-131.111115,-342.222229,315.000000,14.070704,1.190060,-8.050403,973
-143.884888,-11.990407,-947.242188,-131.111115,-348.888885,320.000000,7.630382,5.530277,-3.710186,974
-71.942444,0.000000,-959.232544,-128.888885,-340.000000,315.000000,3.920196,6.650332,-2.310116,975
-71.942444,11.990407,-959.232544,-133.333328,-348.888885,320.000000,1.960098,9.170459,-2.520126,976
-71.942444,-47.961628,-959.232544,-133.333328,-344.444458,315.000000,-0.140007,13.300665,-1.050053,977
-35.971222,-35.971222,-1007.194214,-133.333328,-351.111115,315.000000,-6.860343,34.861744,4.270214,978
0.000000,-71.942444,-1223.021484,-131.111115,-346.666656,312.500000,6.160308,16.520826,-3.990200,979
-131.894485,0.000000,-1270.983154,-131.111115,-348.888885,317.500000,22.331118,17.710886,-6.300315,980
-167.865707,0.000000,-1366.906372,-133.333328,-344.444458,312.500000,16.170809,23.801189,-5.950297,981
-107.913666,11.990407,-1366.906372,-135.555557,-353.333344,312.500000,3.430171,22.541128,-7.210361,982
-47.961628,-23.980814,-1223.021484,-133.333328,-346.666656,310.000000,0.000000,12.040602,-6.790339,983
0.000000,35.971222,-1139.088623,-135.555557,-355.555542,317.500000,1.050053,-0.980049,-5.810291,984
0.000000,-23.980814,-1079.136597,-128.888885,-346.666656,312.500000,2.940147,-4.340217,-2.240112,985
-23.980814,0.000000,-1079.136597,-133.333328,-353.333344,312.500000,6.860343,-3.150157,-2.170109,986
-95.923256,-71.942444,-1055.155884,-131.111115,-351.111115,310.000000,8.540427,-1.260063,-3.430171,987
-59.952034,-23.980814,-1091.127075,-135.555557,-353.333344,315.000000,6.090304,1.750087,-4.970249,988
-71.942444,-23.980814,-1055.155884,-131.111115,-351.111115,312.500000,5.740287,0.700035,-4.270214,989
-107.913666,11.990407,-1055.155884,-133.333328,-351.111115,315.000000,4.550228,-1.050053,-4.130207,990
-47.961628,47.961628,-1055.155884,-131.111115,-344.444458,310.000000,2.520126,-4.200210,-3.850193,991
-35.971222,11.990407,-1007.194214,-133.333328,-351.111115,317.500000,1.330067,-1.330067,-1.120056,992
-71.942444,0.000000,-1031.175049,-133.333328,-348.888885,310.000000,-0.210010,-1.540077,-1.050053,993
-119.904068,0.000000,-1055.155884,-135.555557,-353.333344,317.500000,0.070004,0.980049,-0.280014,994
-23.980814,0.000000,-1055.155884,-131.111115,-351.111115,310.000000,-0.210010,1.820091,-0.350018,995
-83.932854,11.990407,-1031.175049,-133.333328,-355.555542,312.500000,-1.050053,1.680084,-0.630032,996
-47.961628,47.961628,-1055.155884,-133.333328,-353.333344,310.000000,-1.260063,2.870144,-0.070004,997
-35.971222,35.971222,-1079.136597,-135.555557,-353.333344,312.500000,-2.170109,3.990200,0.280014,998
-47.961628,23.980814,-1151.079102,-131.111115,-346.666656,307.500000,-2.310116,5.670284,0.420021,999
-23.980814,11.990407,-1067.146240,-135.555557,-353.333344,315.000000,-1.890095,6.230311,0.000000,1000
-95.923256,23.980814,-1079.136597,-131.111115,-348.888885,310.000000,-2.730137,6.580329,1.050053,1001
-47.961628,23.980814,-1055.155884,-135.555557,-357.777771,312.500000,-3.430171,6.860343,1.260063,1002
-23.980814,23.980814,-1055.155884,-128.888885,-351.111115,310.000000,-3.500175,1.610080,3.010150,1003
-35.971222,11.990407,-1055.155884,-133.333328,-353.333344,312.500000,-3.080154,-0.910046,-0.210010,1004
-35.971222,-23.980814,-1043.165405,-133.333328,-351.111115,310.000000,-2.170109,0.140007,0.770038,1005
-71.942444,-23.980814,-1031.175049,-128.888885,-353.333344,307.500000,-1.890095,0.140007,-0.350018,1006
-23.980814,-1055.155884,-133.333328,-355.555542,312.500000,-1.330067,-0.980049,-0.280014,0.000000,1007
-47.961628,-23.980814,-1055.155884,-133.333328,-355.555542,312.500000,-1.330067,-0.980049,-0.280014,1008
-11.990407,-11.990407,-1019.184631,-131.111115,-351.111115,310.000000,-0.350018,-0.490025,0.210010,1009
0.000000,0.000000,-1031.175049,-133.333328,-355.555542,317.500000,0.840042,-1.890095,0.770038,1010
-47.961628,0.000000,-1055.155884,-131.111115,-348.888885,307.500000,2.030102,-3.640182,2.100105,1011
-47.961628,-23.980814,-1055.155884,-140.000000,-355.555542,317.500000,3.850193,-3.640182,2.030102,1012
-59.952034,11.990407,-1067.146240,-133.333328,-348.888885,310.000000,4.830242,-3.710186,1.400070,1013
-23.980814,-47.961628,-1079.136597,-135.555557,-351.111115,310.000000,5.670284,-4.410221,1.470073,1014
-11.990407,0.000000,-1055.155884,-133.333328,-344.444458,310.000000,5.670284,-4.480224,1.330067,1015
0.000000,0.000000,-1079.136597,-137.777771,-353.333344,310.000000,5.110256,-3.850193,0.560028,1016
-47.961628,0.000000,-1055.155884,-131.111115,-348.888885,310.000000,4.340217,-3.570179,0.770038,1017
-71.942444,-47.961628,-1031.175049,-137.777771,-353.333344,315.000000,3.080154,-4.340217,0.630032,1018
-59.952034,-11.990407,-1043.165405,-133.333328,-346.666656,310.000000,1.820091,-4.760238,0.560028,1019
23.980814,47.961628,-1079.136597,-137.777771,-353.333344,312.500000,0.980049,-5.180259,0.560028,1020
-11.990407,11.990407,-1067.146240,-131.111115,-348.888885,307.500000,0.980049,-5.810291,0.420021,1021
-23.980814,-23.980814,-1055.155884,-135.555557,-346.666656,315.000000,-0.420021,-6.230311,0.560028,1022
-23.980814,11.990407,-1067.146240,-137.777771,-351.111115,312.500000,-1.190060,-6.160308,0.140007,1023
-23.980814,23.980814,-1007.194214,-135.555557,-355.555542,315.000000,-2.310116,-6.160308,-0.280014,1024
-11.990407,0.000000,-1043.165405,-131.111115,-348.888885,312.500000,-2.450123,-6.720336,-1.120056,1025
0.000000,47.961628,-1031.175049,-140.000000,-351.111115,312.500000,-2.170109,-7.420371,-1.190060,1026
-23.980814,23.980814,-1055.155884,-137.777771,-342.222229,310.000000,-1.330067,-8.540427,-2.520126,1027
-47.961628,0.000000,-1007.194214,-140.000000,-353.333344,312.500000,0.140007,-10.010501,-3.990200,1028
-11.990407,0.000000,-1031.175049,-133.333328,-342.222229,307.500000,3.080154,-10.570529,-4.060203,1029
-47.961628,-47.961628,-1031.175049,-135.555557,-353.333344,315.000000,12.250612,-9.800490,-1.400070,1030
-35.971222,-11.990407,-1055.155884,-135.555557,-344.444458,312.500000,9.730487,-9.450473,-1.190060,1031
0.000000,-23.980814,-1079.136597,-135.555557,-348.888885,312.500000,9.520476,-7.560378,-3.570179,1032
-23.980814,-23.980814,-1079.136597,-133.333328,-342.222229,310.000000,7.910396,-6.790339,-4.270214,1033
-47.961628,-23.980814,-1079.136597,-135.555557,-353.333344,320.000000,5.600280,-6.160308,-5.670284,1034
-47.961628,-23.980814,-1055.155884,-137.777771,-342.222229,310.000000,4.270214,-5.180259,-6.230311,1035
-23.980814,0.000000,-1055.155884,-140.000000,-348.888885,310.000000,4.060203,-4.760238,-6.090304,1036
-11.990407,0.000000,-1067.146240,-135.555557,-344.444458,310.000000,4.340217,-4.690235,-4.550228,1037
-23.980814,-23.980814,-1079.136597,-137.777771,-346.666656,312.500000,3.710186,-4.760238,-3.920196,1038
-35.971222,-11.990407,-1067.146240,-137.777771,-346.666656,310.000000,2.030102,-4.200210,-4.340217,1039
23.980814,0.000000,-1079.136597,-137.777771,-344.444458,315.000000,0.910046,-3.010150,-3.150157,1040
0.000000,-11.990407,-1043.165405,-137.777771,-344.444458,310.000000,-0.420021,-2.940147,-1.470073,1041
-71.942444,0.000000,-1055.155884,-135.555557,-348.888885,317.500000,-1.120056,-3.150157,-0.910046,1042
-47.961628,-23.980814,-1043.165405,-137.777771,-342.222229,312.500000,-1.610080,-3.500175,0.140007,1043
-47.961628,-23.980814,-1031.175049,-140.000000,-348.888885,315.000000,-2.170109,-2.870144,1.260063,1044
-47.961628,11.990407,-1043.165405,-133.333328,-342.222229,307.500000,-2.310116,-2.940147,2.450123,1045
-47.961628,0.000000,-1055.155884,-137.777771,-348.888885,317.500000,-2.520126,-3.360168,3.010150,1046
-23.980814,0.000000,-1067.146240,-135.555557,-340.000000,312.500000,-3.150157,-2.800140,2.730137,1047
0.000000,23.980814,-1103.117432,-135.555557,-344.444458,312.500000,-2.870144,-2.590130,2.240112,1048
-11.990407,11.990407,-1079.136597,-140.000000,-344.444458,312.500000,-3.220161,-1.330067,0.560028,1049
-23.980814,0.000000,-1079.136597,-140.000000,-351.111115,315.000000,-1.960098,-1.260063,-1.540077,1050
-11.990407,11.990407,-1103.117432,-140.000000,-342.222229,310.000000,-1.680084,-1.680084,-1.540077,1051
-23.980814,-47.961628,-1031.175049,-142.222229,-351.111115,312.500000,-1.960098,-1.120056,-1.610080,1052
-11.990407,0.000000,-1067.146240,-133.333328,-344.444458,307.500000,-1.610080,-0.280014,-1.890095,1053
-47.961628,-47.961628,-1079.136597,-135.555557,-353.333344,317.500000,-1.050053,0.350018,-2.800140,1054
-35.971222,0.000000,-1055.155884,-137.777771,-344.444458,310.000000,-0.910046,0.700035,-3.080154,1055
-23.980814,-23.980814,-1007.194214,-140.000000,-346.666656,315.000000,-2.030102,1.050053,-2.590130,1056
-11.990407,-11.990407,-1031.175049,-137.777771,-344.444458,310.000000,-2.100105,1.610080,-1.680084,1057
-23.980814,-23.980814,-1055.155884,-135.555557,-348.888885,312.500000,-1.680084,2.100105,-0.630032,1058
-23.980814,0.000000,-1043.165405,-133.333328,-344.444458,310.000000,-0.910046,1.260063,-0.210010,1059
-23.980814,-23.980814,-1079.136597,-137.777771,-348.888885,315.000000,-0.560028,0.840042,0.350018,1060
-11.990407,-11.990407,-1079.136597,-135.555557,-342.222229,312.500000,-4.900245,-2.660133,-1.960098,1061
0.000000,23.980814,-1055.155884,-137.777771,-351.111115,320.000000,-4.130207,-1.890095,0.840042,1062
-11.990407,11.990407,-1055.155884,-133.333328,-342.222229,312.500000,-4.200210,-1.960098,1.750087,1063
-47.961628,-23.980814,-1055.155884,-135.555557,-353.333344,315.000000,-4.130207,-1.680084,2.240112,1064
-35.971222,-23.980814,-1019.184631,-135.555557,-344.444458,312.500000,-5.460273,-1.960098,2.100105,1065
0.000000,-23.980814,-1103.117432,-135.555557,-348.888885,315.000000,-5.460273,-1.890095,1.750087,1066
11.990407,0.000000,-1067.146240,-133.333328,-342.222229,310.000000,-3.570179,-1.400070,1.820091,1067
0.000000,0.000000,-1031.175049,-140.000000,-351.111115,315.000000,-1.260063,-1.050053,1.680084,1068
-11.990407,11.990407,-1067.146240,-133.333328,-340.000000,307.500000,-0.140007,-0.490025,1.190060,1069
-47.961628,0.000000,-1055.155884,-135.555557,-351.111115,317.500000,0.700035,0.070004,1.260063,1070
-35.971222,-11.990407,-1043.165405,-135.555557,-344.444458,315.000000,0.350018,1.120056,0.350018,1071
-95.923256,23.980814,-1079.136597,-140.000000,-344.444458,315.000000,-0.140007,0.840042,-0.070004,1072
-83.932854,0.000000,-1067.146240,-135.555557,-344.444458,310.000000,-0.490025,1.050053,0.070004,1073
167.865707,-95.923256,-983.213379,-135.555557,-344.444458,310.000000,1.540077,4.970249,6.090304,1074
83.932854,-35.971222,-1007.194214,-131.111115,-344.444458,312.500000,1.190060,5.530277,2.800140,1075
-23.980814,0.000000,-1079.136597,-137.777771,-348.888885,312.500000,-1.330067,0.350018,-0.770038,1076
-35.971222,0.000000,-1079.136597,-135.555557,-342.222229,312.500000,-1.120056,2.800140,0.210010,1077
-23.980814,0.000000,-1079.136597,-137.777771,-351.111115,320.000000,-1.050053,2.520126,-0.490025,1078
-35.971222,11.990407,-1067.146240,-133.333328,-344.444458,310.000000,-1.190060,3.010150,-0.630032,1079
-47.961628,-47.961628,-1079.136597,-135.555557,-351.111115,312.500000,-1.190060,3.220161,-1.330067,1080
-47.961628,-23.980814,-1079.136597,-135.555557,-344.444458,310.000000,-1.610080,3.220161,-1.330067,1081
-71.942444,-47.961628,-1055.155884,-135.555557,-348.888885,317.500000,-1.540077,3.780189,-0.630032,1082
-35.971222,-11.990407,-1055.155884,-137.777771,-342.222229,310.000000,-1.610080,3.430171,-1.330067,1083
0.000000,23.980814,-1103.117432,-137.777771,-351.111115,317.500000,-1.050053,3.920196,-0.700035,1084
-47.961628,11.990407,-1055.155884,-135.555557,-344.444458,312.500000,-1.470073,4.200210,0.350018,1085
-23.980814,0.000000,-1031.175049,-135.555557,-348.888885,312.500000,-2.380119,4.900245,1.190060,1086
-83.932854,23.980814,-1079.136597,-133.333328,-340.000000,310.000000,-2.170109,4.970249,5.740287,1087
23.980814,0.000000,-1055.155884,-135.555557,-348.888885,312.500000,-1.540077,8.330417,11.970598,1088
-11.990407,0.000000,-1043.165405,-135.555557,-340.000000,310.000000,-2.240112,4.760238,9.660483,1089
0.000000,23.980814,-1055.155884,-131.111115,-348.888885,317.500000,-1.260063,2.380119,10.360518,1090
-35.971222,23.980814,-1091.127075,-133.333328,-351.111115,310.000000,-6.020301,4.690235,8.190410,1091
0.000000,-23.980814,-1031.175049,-137.777771,-348.888885,315.000000,-5.740287,7.000350,9.590480,1092
-23.980814,11.990407,-1055.155884,-137.777771,-344.444458,312.500000,-5.250263,5.390270,9.450473,1093
-23.980814,23.980814,-1031.175049,-140.000000,-351.111115,315.000000,-2.940147,4.550228,9.800490,1094
11.990407,-11.990407,-1043.165405,-137.777771,-344.444458,310.000000,-1.680084,3.010150,9.100455,1095
-23.980814,0.000000,-1103.117432,-140.000000,-353.333344,315.000000,-1.190060,1.470073,8.470424,1096
-59.952034,-11.990407,-1067.146240,-135.555557,-342.222229,315.000000,-0.280014,0.910046,7.280364,1097
-215.827332,-23.980814,-1079.136597,-140.000000,-353.333344,315.000000,1.470073,-0.560028,5.460273,1098
-119.904068,-47.961628,-1043.165405,-140.000000,-344.444458,312.500000,3.990200,-0.420021,5.180259,1099
0.000000,-23.980814,-1055.155884,-135.555557,-348.888885,312.500000,3.360168,0.490025,4.410221,1100
-11.990407,-23.980814,-1055.155884,-137.777771,-346.666656,312.500000,0.840042,-1.120056,4.480224,1101
-23.980814,-23.980814,-1031.175049,-142.222229,-353.333344,315.000000,4.270214,-0.560028,4.760238,1102
-35.971222,-11.990407,-1019.184631,-135.555557,-340.000000,310.000000,3.920196,-0.840042,2.870144,1103
-23.980814,0.000000,-1055.155884,-140.000000,-351.111115,312.500000,2.520126,-0.350018,1.050053,1104
-95.923256,0.000000,-1091.127075,-135.555557,-342.222229,310.000000,0.070004,-0.070004,-0.770038,1105
-23.980814,0.000000,-1079.136597,-142.222229,-351.111115,312.500000,1.750087,5.880294,2.870144,1106
-35.971222,11.990407,-1067.146240,-142.222229,-346.666656,310.000000,-5.390270,7.490375,-6.160308,1107
-23.980814,-47.961628,-1031.175049,-140.000000,-344.444458,312.500000,-9.590480,4.480224,-10.360518,1108
-11.990407,-11.990407,-1043.165405,-135.555557,-346.666656,310.000000,-11.550578,5.250263,-12.460623,1109
-95.923256,0.000000,-1055.155884,-142.222229,-351.111115,310.000000,-14.980749,4.690235,-15.330767,1110
-83.932854,11.990407,-1067.146240,-135.555557,-340.000000,307.500000,-14.070704,3.570179,-13.300665,1111
23.980814,0.000000,-1031.175049,-135.555557,-351.111115,315.000000,-12.460623,3.850193,-9.800490,1112
-59.952034,11.990407,-1019.184631,-135.555557,-346.666656,310.000000,-10.430522,1.400070,-9.310466,1113
-95.923256,-47.961628,-1055.155884,-135.555557,-353.333344,312.500000,-13.720686,-1.190060,-10.710536,1114
-95.923256,-11.990407,-1031.175049,-135.555557,-344.444458,310.000000,-16.870844,-2.100105,-11.410571,1115
-95.923256,23.980814,-1103.117432,-133.333328,-344.444458,312.500000,-18.970949,0.700035,-10.710536,1116
-35.971222,11.990407,-1055.155884,-135.555557,-344.444458,312.500000,-18.830942,5.460273,-8.610431,1117
-71.942444,23.980814,-1055.155884,-131.111115,-355.555542,315.000000,-15.120756,8.120406,-7.980399,1118
-11.990407,59.952034,-1043.165405,-124.444443,-344.444458,310.000000,-13.790689,5.180259,-7.840392,1119
95.923256,47.961628,-1031.175049,-135.555557,-353.333344,317.500000,-14.350718,3.290164,-5.460273,1120
23.980814,23.980814,-1019.184631,-126.666664,-346.666656,312.500000,-10.570529,0.630032,-5.950297,1121
263.788971,1199.040771,-839.328491,-131.111115,-353.333344,312.500000,-6.020301,-1.260063,-6.580329,1122
179.856110,167.865707,-1043.165405,-128.888885,-351.111115,307.500000,-27.791389,6.440322,-37.591881,1123
-23.980814,23.980814,-983.213379,-131.111115,-355.555542,312.500000,-21.911097,11.060554,-19.530977,1124
-119.904068,23.980814,-1007.194214,-128.888885,-348.888885,312.500000,-20.301016,2.660133,-16.310816,1125
-71.942444,47.961628,-1031.175049,-126.666664,-351.111115,312.500000,-17.360868,0.000000,-15.680784,1126
-23.980814,0.000000,-1031.175049,-122.222221,-346.666656,312.500000,-16.590830,0.000000,-14.070704,1127
-167.865707,23.980814,-1007.194214,-124.444443,-355.555542,310.000000,-17.570879,-2.520126,-13.930696,1128
-131.894485,0.000000,-1055.155884,-124.444443,-348.888885,310.000000,-16.520826,-3.570179,-14.560728,1129
-167.865707,-23.980814,-1079.136597,-126.666664,-357.777771,320.000000,-15.750788,-3.220161,-14.490725,1130
-143.884888,-23.980814,-1067.146240,-120.000000,-351.111115,312.500000,-17.220861,-3.150157,-14.070704,1131
47.961628,23.980814,-1031.175049,-120.000000,-351.111115,312.500000,-17.850893,-2.520126,-12.740637,1132
71.942444,-119.904068,-1055.155884,-120.000000,-348.888885,310.000000,-14.420721,-7.070354,-3.500175,1133
-143.884888,-95.923256,-1055.155884,-117.777779,-357.777771,320.000000,-10.850543,-13.370668,-1.750087,1134
-95.923256,-11.990407,-1079.136597,-120.000000,-346.666656,312.500000,-7.770389,-8.540427,-2.730137,1135
-47.961628,71.942444,-1031.175049,-120.000000,-357.777771,315.000000,-2.310116,-2.870144,1.260063,1136
-119.904068,23.980814,-1067.146240,-117.777779,-351.111115,312.500000,-1.330067,-1.750087,1.820091,1137
0.000000,-71.942444,-1031.175049,-122.222221,-353.333344,320.000000,-4.760238,-0.210010,-0.350018,1138
-83.932854,0.000000,-1055.155884,-120.000000,-346.666656,312.500000,-1.470073,-1.540077,3.220161,1139
-71.942444,0.000000,-1079.136597,-122.222221,-353.333344,315.000000,3.080154,-1.190060,6.580329,1140
-59.952034,-11.990407,-1067.146240,-117.777779,-351.111115,315.000000,5.530277,1.050053,8.190410,1141
-71.942444,-23.980814,-1031.175049,-120.000000,-351.111115,317.500000,4.760238,1.540077,8.890445,1142
-59.952034,0.000000,-1043.165405,-120.000000,-346.666656,310.000000,4.830242,-2.100105,6.860343,1143
-71.942444,0.000000,-1031.175049,-120.000000,-353.333344,317.500000,1.960098,-3.990200,7.700385,1144
-47.961628,0.000000,-1067.146240,-120.000000,-351.111115,315.000000,-1.540077,-1.400070,9.520476,1145
-47.961628,47.961628,-1055.155884,-124.444443,-353.333344,317.500000,-3.430171,0.700035,7.700385,1146
-83.932854,47.961628,-1067.146240,-117.777779,-348.888885,312.500000,-0.490025,3.010150,7.000350,1147
-95.923256,0.000000,-1007.194214,-124.444443,-357.777771,317.500000,1.400070,5.110256,6.020301,1148
-59.952034,-11.990407,-1055.155884,-122.222221,-348.888885,312.500000,1.960098,5.390270,4.410221,1149
-95.923256,0.000000,-1079.136597,-124.444443,-346.666656,312.500000,3.430171,5.250263,3.920196,1150
-71.942444,11.990407,-1055.155884,-120.000000,-346.666656,312.500000,6.510325,5.460273,4.340217,1151
-95.923256,23.980814,-1079.136597,-128.888885,-353.333344,317.500000,10.080504,4.060203,3.080154,1152
-47.961628,23.980814,-1031.175049,-122.222221,-346.666656,312.500000,11.830591,1.470073,2.380119,1153
0.000000,0.000000,-1079.136597,-126.666664,-355.555542,315.000000,11.690584,-0.350018,0.490025,1154
-23.980814,35.971222,-1091.127075,-122.222221,-348.888885,310.000000,8.330417,-3.570179,-0.840042,1155
0.000000,0.000000,-1055.155884,-126.666664,-355.555542,315.000000,7.490375,-5.530277,-1.680084,1156
-23.980814,23.980814,-1043.165405,-122.222221,-353.333344,312.500000,6.230311,-8.260413,-4.410221,1157
-47.961628,0.000000,-1055.155884,-122.222221,-348.888885,315.000000,2.870144,-12.950647,-6.580329,1158
-71.942444,35.971222,-1055.155884,-122.222221,-353.333344,315.000000,-0.980049,-16.450823,-8.260413,1159
-71.942444,-23.980814,-1103.117432,-124.444443,-346.666656,315.000000,-0.420021,-16.380819,-4.970249,1160
-71.942444,23.980814,-1091.127075,-126.666664,-346.666656,312.500000,-0.980049,-14.770739,-2.240112,1161
-95.923256,11.990407,-1067.146240,-128.888885,-351.111115,317.500000,-1.960098,-9.100455,-1.680084,1162
-95.923256,-23.980814,-1055.155884,-124.444443,-342.222229,315.000000,-5.040252,-7.840392,-3.920196,1163
-35.971222,-11.990407,-1055.155884,-122.222221,-355.555542,320.000000,-8.820441,-8.190410,-1.260063,1164
-143.884888,0.000000,-1055.155884,-120.000000,-346.666656,315.000000,-8.260413,-8.120406,-0.980049,1165
-95.923256,71.942444,-1055.155884,-122.222221,-351.111115,320.000000,-7.980399,-7.560378,-2.450123,1166
-47.961628,-47.961628,-1055.155884,-122.222221,-348.888885,320.000000,-8.400420,-5.110256,2.940147,1167
-71.942444,0.000000,-1079.136597,-128.888885,-353.333344,315.000000,-2.660133,1.400070,4.900245,1168
-119.904068,-71.942444,-1103.117432,-120.000000,-344.444458,312.500000,-0.490025,2.800140,8.540427,1169
-107.913666,-47.961628,-1067.146240,-126.666664,-353.333344,315.000000,3.150157,0.350018,9.100455,1170
-95.923256,-23.980814,-1079.136597,-115.555557,-344.444458,310.000000,5.250263,-1.260063,10.640532,1171
-95.923256,-11.990407,-1067.146240,-124.444443,-351.111115,317.500000,6.300315,-1.120056,11.060554,1172
-47.961628,-23.980814,-1031.175049,-126.666664,-342.222229,312.500000,7.000350,-0.490025,11.270564,1173
-11.990407,23.980814,-1043.165405,-126.666664,-351.111115,317.500000,7.490375,-0.210010,12.040602,1174
