ACC_X,ACC_Y,ACC_Z,MAG_X,MAG_Y,MAG_Z, GYRO_Y,GYRO_X,GYRO_Z,COUNT
971.222961,71.942444,-119.904068,-342.222229,-357.777771,-195.000000,-0.280014,-1.540077,-3.780189,0
959.232544,23.980814,-119.904068,-342.222229,-364.444458,-187.500000,0.210010,-1.890095,-1.400070,1
983.213379,11.990407,-83.932854,-337.777771,-357.777771,-190.000000,-0.420021,-1.680084,-0.910046,2
959.232544,47.961628,-95.923256,-340.000000,-362.222229,-190.000000,-1.680084,-0.840042,-0.560028,3
947.242188,47.961628,-107.913666,-340.000000,-357.777771,-190.000000,-2.240112,-0.420021,-0.280014,4
959.232544,23.980814,-167.865707,-344.444458,-366.666656,-190.000000,-3.500175,-0.350018,-0.140007,5
971.222961,47.961628,-131.894485,-337.777771,-362.222229,-192.500000,-3.920196,-0.140007,-0.420021,6
959.232544,71.942444,-95.923256,-342.222229,-368.888885,-187.500000,-3.500175,-0.280014,-0.070004,7
947.242188,47.961628,-107.913666,-337.777771,-357.777771,-190.000000,-2.940147,-0.630032,-0.070004,8
959.232544,0.000000,-95.923256,-342.222229,-366.666656,-190.000000,-2.730137,-0.630032,-0.910046,9
959.232544,23.980814,-107.913666,-342.222229,-360.000000,-192.500000,-1.470073,-1.190060,-0.840042,10
983.213379,23.980814,-119.904068,-342.222229,-366.666656,-187.500000,-1.260063,-1.190060,-0.910046,11
947.242188,35.971222,-131.894485,-340.000000,-362.222229,-190.000000,-0.280014,-1.260063,-1.190060,12
1031.175049,47.961628,-119.904068,-340.000000,-362.222229,-187.500000,-0.070004,-1.120056,-0.840042,13
995.203796,35.971222,-119.904068,-337.777771,-360.000000,-195.000000,-0.210010,-1.400070,-0.490025,14
959.232544,47.961628,-71.942444,-346.666656,-368.888885,-190.000000,-0.490025,-1.050053,-0.840042,15
959.232544,35.971222,-107.913666,-340.000000,-357.777771,-195.000000,-1.540077,-0.910046,-0.070004,16
983.213379,47.961628,-143.884888,-344.444458,-366.666656,-187.500000,-3.780189,-0.980049,-0.280014,17
959.232544,47.961628,-95.923256,-342.222229,-360.000000,-190.000000,-4.970249,-0.490025,-0.210010,18
983.213379,0.000000,-119.904068,-340.000000,-366.666656,-190.000000,-6.300315,-1.260063,0.140007,19
983.213379,0.000000,-95.923256,-340.000000,-360.000000,-192.500000,-6.720336,-1.120056,0.420021,20
959.232544,0.000000,-119.904068,-340.000000,-362.222229,-190.000000,-8.260413,-1.050053,0.980049,21
947.242188,11.990407,-95.923256,-340.000000,-357.777771,-192.500000,-8.050403,-0.910046,1.120056,22
1007.194214,0.000000,-167.865707,-342.222229,-364.444458,-187.500000,-8.190410,-0.840042,0.350018,23
959.232544,23.980814,-143.884888,-335.555542,-357.777771,-190.000000,-8.330417,-0.910046,-0.210010,24
959.232544,71.942444,-71.942444,-344.444458,-366.666656,-187.500000,-7.630382,-0.700035,0.000000,25
959.232544,59.952034,-131.894485,-340.000000,-360.000000,-190.000000,-7.280364,-0.770038,-0.210010,26
935.251770,0.000000,-119.904068,-344.444458,-362.222229,-185.000000,-6.090304,-0.980049,-0.630032,27
959.232544,23.980814,-167.865707,-340.000000,-364.444458,-190.000000,-4.130207,-0.420021,-0.840042,28
959.232544,23.980814,-143.884888,-342.222229,-357.777771,-190.000000,-1.540077,-0.700035,-1.190060,29
983.213379,35.971222,-119.904068,-346.666656,-355.555542,-192.500000,0.350018,0.070004,-1.050053,30
959.232544,23.980814,-143.884888,-344.444458,-364.444458,-187.500000,0.630032,-0.140007,-1.120056,31
971.222961,11.990407,-155.875290,-340.000000,-357.777771,-192.500000,1.610080,-0.140007,-1.050053,32
983.213379,23.980814,-95.923256,-344.444458,-364.444458,-185.000000,1.120056,-0.210010,-0.630032,33
959.232544,23.980814,-131.894485,-337.777771,-357.777771,-192.500000,1.260063,-0.560028,-0.700035,34
983.213379,47.961628,-167.865707,-344.444458,-362.222229,-187.500000,0.000000,0.000000,-0.630032,35
983.213379,59.952034,-143.884888,-344.444458,-357.777771,-192.500000,-0.070004,-0.070004,-1.190060,36
935.251770,47.961628,-119.904068,-340.000000,-360.000000,-192.500000,0.280014,-0.070004,-1.120056,37
947.242188,47.961628,-107.913666,-342.222229,-364.444458,-190.000000,0.350018,-0.420021,-0.910046,38
935.251770,47.961628,-143.884888,-342.222229,-364.444458,-190.000000,0.560028,-0.420021,-1.750087,39
971.222961,35.971222,-143.884888,-340.000000,-360.000000,-190.000000,1.050053,-1.330067,-1.330067,40
959.232544,0.000000,-95.923256,-344.444458,-364.444458,-190.000000,2.030102,-0.980049,-1.470073,41
959.232544,11.990407,-119.904068,-340.000000,-362.222229,-190.000000,1.960098,-1.890095,-1.890095,42
911.270935,0.000000,-119.904068,-344.444458,-364.444458,-187.500000,0.560028,-0.770038,-3.010150,43
923.261353,23.980814,-107.913666,-340.000000,-360.000000,-192.500000,0.000000,-0.210010,-2.100105,44
959.232544,71.942444,-95.923256,-342.222229,-362.222229,-187.500000,-0.700035,0.000000,-1.190060,45
947.242188,59.952034,-107.913666,-342.222229,-362.222229,-187.500000,-1.050053,0.280014,-0.560028,46
983.213379,23.980814,-167.865707,-344.444458,-366.666656,-187.500000,-1.890095,0.420021,-0.630032,47
971.222961,23.980814,-119.904068,-340.000000,-357.777771,-195.000000,-2.170109,0.420021,-0.560028,48
983.213379,47.961628,-143.884888,-342.222229,-366.666656,-190.000000,-2.590130,1.400070,-0.070004,49
971.222961,59.952034,-107.913666,-337.777771,-360.000000,-190.000000,-2.730137,1.470073,0.000000,50
959.232544,23.980814,-119.904068,-344.444458,-364.444458,-187.500000,-3.430171,1.820091,1.260063,51
959.232544,35.971222,-131.894485,-340.000000,-355.555542,-192.500000,-3.080154,1.680084,1.120056,52
935.251770,0.000000,-23.980814,-344.444458,-360.000000,-187.500000,-3.850193,1.890095,1.190060,53
971.222961,23.980814,-107.913666,-340.000000,-360.000000,-190.000000,-3.360168,1.050053,1.260063,54
959.232544,0.000000,-167.865707,-340.000000,-362.222229,-190.000000,-3.150157,1.120056,0.910046,55
971.222961,11.990407,-167.865707,-340.000000,-355.555542,-187.500000,-1.680084,1.120056,0.140007,56
983.213379,0.000000,-95.923256,-344.444458,-362.222229,-185.000000,-1.260063,0.350018,0.070004,57
959.232544,35.971222,-95.923256,-340.000000,-357.777771,-190.000000,-1.750087,0.070004,-0.630032,58
935.251770,47.961628,-143.884888,-344.444458,-364.444458,-190.000000,-1.190060,-0.420021,-0.840042,59
935.251770,23.980814,-143.884888,-340.000000,-357.777771,-192.500000,-0.980049,-0.910046,-0.210010,60
959.232544,23.980814,-71.942444,-344.444458,-364.444458,-187.500000,-1.190060,-0.770038,0.000000,61
947.242188,59.952034,-83.932854,-340.000000,-357.777771,-192.500000,-2.310116,-0.840042,1.050053,62
911.270935,47.961628,-143.884888,-340.000000,-360.000000,-190.000000,-3.080154,-0.420021,1.540077,63
947.242188,47.961628,-131.894485,-342.222229,-355.555542,-190.000000,-3.640182,-0.490025,1.330067,64
959.232544,47.961628,-191.846512,-342.222229,-362.222229,-190.000000,-3.850193,-0.910046,1.610080,65
971.222961,23.980814,-143.884888,-340.000000,-357.777771,-190.000000,-4.900245,0.280014,1.890095,66
983.213379,71.942444,-143.884888,-344.444458,-360.000000,-187.500000,-4.900245,0.000000,1.050053,67
959.232544,47.961628,-143.884888,-340.000000,-360.000000,-190.000000,-4.760238,-0.210010,0.980049,68
959.232544,0.000000,-119.904068,-346.666656,-364.444458,-182.500000,-4.480224,-0.700035,0.070004,69
959.232544,35.971222,-143.884888,-344.444458,-355.555542,-190.000000,-3.710186,-0.840042,-0.840042,70
983.213379,23.980814,-143.884888,-342.222229,-360.000000,-190.000000,-2.870144,-0.840042,-1.050053,71
959.232544,35.971222,-155.875290,-344.444458,-360.000000,-190.000000,-1.260063,-0.980049,-1.050053,72
983.213379,71.942444,-167.865707,-342.222229,-366.666656,-185.000000,0.350018,-1.890095,-2.030102,73
971.222961,35.971222,-167.865707,-340.000000,-355.555542,-190.000000,1.750087,-1.960098,-1.050053,74
935.251770,23.980814,-143.884888,-346.666656,-364.444458,-185.000000,3.570179,-2.450123,-1.260063,75
947.242188,35.971222,-155.875290,-337.777771,-357.777771,-190.000000,4.060203,-2.240112,-1.330067,76
983.213379,0.000000,-143.884888,-342.222229,-364.444458,-185.000000,3.850193,-1.680084,-1.750087,77
983.213379,23.980814,-107.913666,-342.222229,-357.777771,-190.000000,3.220161,-1.540077,-1.470073,78
959.232544,71.942444,-119.904068,-344.444458,-355.555542,-187.500000,2.240112,-1.330067,-1.190060,79
959.232544,35.971222,-131.894485,-340.000000,-360.000000,-190.000000,0.070004,-1.050053,-1.400070,80
983.213379,71.942444,-119.904068,-344.444458,-362.222229,-187.500000,-2.030102,-0.280014,-0.700035,81
971.222961,71.942444,-107.913666,-342.222229,-360.000000,-195.000000,-3.010150,-0.630032,-1.400070,82
959.232544,0.000000,-119.904068,-344.444458,-364.444458,-187.500000,-3.360168,-0.420021,-0.630032,83
959.232544,35.971222,-119.904068,-342.222229,-357.777771,-190.000000,-4.410221,-0.490025,-0.140007,84
983.213379,23.980814,-119.904068,-344.444458,-364.444458,-187.500000,-5.740287,0.420021,-0.210010,85
971.222961,47.961628,-83.932854,-342.222229,-355.555542,-192.500000,-7.910396,0.560028,0.280014,86
935.251770,71.942444,-71.942444,-342.222229,-360.000000,-182.500000,-8.470424,0.910046,0.560028,87
947.242188,23.980814,-131.894485,-340.000000,-357.777771,-187.500000,-9.520476,1.260063,1.260063,88
959.232544,0.000000,-191.846512,-344.444458,-360.000000,-185.000000,-9.520476,0.910046,1.470073,89
1007.194214,23.980814,-179.856110,-342.222229,-355.555542,-187.500000,-9.660483,0.770038,0.910046,90
959.232544,23.980814,-167.865707,-342.222229,-364.444458,-185.000000,-10.010501,0.490025,1.050053,91
959.232544,47.961628,-179.856110,-342.222229,-360.000000,-190.000000,-9.380469,0.280014,1.680084,92
959.232544,47.961628,-119.904068,-342.222229,-362.222229,-185.000000,-9.100455,0.280014,0.910046,93
971.222961,35.971222,-155.875290,-340.000000,-360.000000,-190.000000,-9.450473,-0.210010,0.840042,94
983.213379,23.980814,-71.942444,-342.222229,-362.222229,-185.000000,-9.310466,-0.490025,0.280014,95
971.222961,11.990407,-131.894485,-342.222229,-364.444458,-185.000000,-8.680434,-0.140007,0.070004,96
983.213379,0.000000,-167.865707,-346.666656,-357.777771,-187.500000,-7.210361,-0.280014,1.260063,97
983.213379,23.980814,-155.875290,-340.000000,-357.777771,-187.500000,-5.390270,-0.700035,-0.630032,98
983.213379,23.980814,-167.865707,-346.666656,-364.444458,-185.000000,-4.550228,-0.910046,-0.840042,99
959.232544,23.980814,-119.904068,-342.222229,-357.777771,-187.500000,-3.360168,-1.260063,-0.350018,100
935.251770,23.980814,-143.884888,-344.444458,-362.222229,-180.000000,-1.960098,-1.260063,-0.770038,101
971.222961,47.961628,-155.875290,-342.222229,-357.777771,-185.000000,0.140007,-1.470073,-1.610080,102
935.251770,23.980814,-167.865707,-348.888885,-364.444458,-180.000000,2.240112,-2.170109,-1.820091,103
959.232544,11.990407,-143.884888,-344.444458,-360.000000,-187.500000,3.710186,-0.840042,-2.380119,104
959.232544,0.000000,-143.884888,-344.444458,-360.000000,-187.500000,4.130207,-0.630032,-3.430171,105
959.232544,35.971222,-143.884888,-344.444458,-357.777771,-187.500000,5.180259,-0.420021,-2.870144,106
959.232544,23.980814,-143.884888,-344.444458,-362.222229,-185.000000,5.530277,-0.630032,-2.660133,107
971.222961,23.980814,-107.913666,-344.444458,-355.555542,-190.000000,5.250263,-0.490025,-2.030102,108
935.251770,0.000000,-95.923256,-344.444458,-364.444458,-182.500000,4.830242,0.910046,-2.100105,109
947.242188,23.980814,-131.894485,-342.222229,-362.222229,-187.500000,4.060203,0.980049,-2.170109,110
983.213379,47.961628,-167.865707,-344.444458,-364.444458,-185.000000,3.220161,0.700035,-1.680084,111
983.213379,35.971222,-131.894485,-342.222229,-353.333344,-190.000000,2.240112,-0.070004,-1.050053,112
959.232544,47.961628,-143.884888,-344.444458,-357.777771,-190.000000,1.120056,0.770038,-1.540077,113
971.222961,35.971222,-155.875290,-344.444458,-364.444458,-187.500000,0.980049,0.630032,-1.400070,114
959.232544,71.942444,-143.884888,-344.444458,-360.000000,-187.500000,0.490025,0.700035,-0.840042,115
959.232544,71.942444,-131.894485,-340.000000,-355.555542,-190.000000,0.210010,0.630032,-0.560028,116
983.213379,47.961628,-143.884888,-344.444458,-362.222229,-185.000000,0.000000,0.210010,-0.770038,117
971.222961,23.980814,-143.884888,-340.000000,-357.777771,-190.000000,0.000000,-0.420021,-1.120056,118
935.251770,47.961628,-95.923256,-340.000000,-364.444458,-187.500000,-0.560028,-0.490025,-0.560028,119
959.232544,71.942444,-119.904068,-340.000000,-364.444458,-187.500000,-1.400070,-0.630032,-0.560028,120
935.251770,71.942444,-167.865707,-488.888885,-513.333313,-262.500000,-1.680084,-0.560028,-0.770038,121
959.232544,47.961628,-119.904068,-346.666656,-357.777771,-187.500000,-2.380119,-0.070004,-0.420021,122
959.232544,47.961628,-95.923256,-346.666656,-364.444458,-185.000000,-3.290164,-0.210010,-0.140007,123
971.222961,23.980814,-143.884888,-337.777771,-360.000000,-190.000000,-3.990200,-0.210010,-0.280014,124
983.213379,23.980814,-143.884888,-344.444458,-364.444458,-187.500000,-5.180259,-0.700035,0.000000,125
971.222961,35.971222,-155.875290,-342.222229,-357.777771,-190.000000,-5.110256,-0.700035,0.000000,126
959.232544,23.980814,-119.904068,-344.444458,-366.666656,-187.500000,-4.900245,-1.260063,-0.350018,127
947.242188,23.980814,-119.904068,-342.222229,-357.777771,-187.500000,-4.760238,-0.980049,-0.280014,128
959.232544,47.961628,-119.904068,-344.444458,-360.000000,-187.500000,-3.920196,-1.540077,-0.070004,129
959.232544,35.971222,-155.875290,-344.444458,-364.444458,-187.500000,-3.990200,-1.260063,0.140007,130
959.232544,95.923256,-143.884888,-340.000000,-364.444458,-185.000000,-4.830242,-0.840042,0.420021,131
959.232544,59.952034,-131.894485,-342.222229,-357.777771,-187.500000,-5.040252,-0.280014,0.000000,132
983.213379,23.980814,-143.884888,-344.444458,-364.444458,-185.000000,-5.110256,-0.280014,-0.490025,133
971.222961,35.971222,-167.865707,-342.222229,-355.555542,-185.000000,-4.830242,-0.350018,-0.490025,134
959.232544,23.980814,-143.884888,-344.444458,-360.000000,-187.500000,-3.360168,-0.490025,0.070004,135
959.232544,35.971222,-131.894485,-342.222229,-355.555542,-187.500000,-3.360168,-0.840042,-0.070004,136
959.232544,-23.980814,-119.904068,-344.444458,-364.444458,-185.000000,-1.820091,-1.120056,-0.490025,137
947.242188,23.980814,-143.884888,-344.444458,-364.444458,-187.500000,-2.450123,-1.260063,-0.560028,138
935.251770,47.961628,-119.904068,-342.222229,-357.777771,-185.000000,-1.890095,-0.630032,-0.910046,139
959.232544,23.980814,-131.894485,-342.222229,-355.555542,-190.000000,-1.470073,-0.630032,-0.770038,140
1007.194214,47.961628,-119.904068,-344.444458,-364.444458,-180.000000,-1.330067,-0.630032,-1.470073,141
971.222961,59.952034,-107.913666,-342.222229,-353.333344,-190.000000,-0.490025,-1.050053,-1.400070,142
911.270935,47.961628,-119.904068,-342.222229,-366.666656,-185.000000,0.000000,-0.490025,-1.190060,143
947.242188,47.961628,-155.875290,-346.666656,-360.000000,-190.000000,0.350018,-0.910046,-1.540077,144
959.232544,23.980814,-167.865707,-344.444458,-366.666656,-180.000000,0.280014,-1.050053,-1.400070,145
959.232544,0.000000,-131.894485,-344.444458,-360.000000,-187.500000,0.140007,-1.190060,-0.770038,146
959.232544,95.923256,-119.904068,-342.222229,-360.000000,-185.000000,-0.630032,-1.050053,-0.770038,147
959.232544,59.952034,-143.884888,-342.222229,-357.777771,-187.500000,0.560028,-1.470073,-0.630032,148
959.232544,47.961628,-167.865707,-346.666656,-366.666656,-185.000000,0.420021,-1.190060,-0.770038,149
971.222961,59.952034,-131.894485,-340.000000,-360.000000,-187.500000,0.630032,-0.980049,-1.190060,150
959.232544,0.000000,-167.865707,-346.666656,-364.444458,-180.000000,0.700035,-1.120056,-0.980049,151
959.232544,35.971222,-167.865707,-342.222229,-357.777771,-187.500000,0.210010,-1.050053,-1.260063,152
959.232544,0.000000,-143.884888,-344.444458,-366.666656,-185.000000,-0.420021,-1.260063,-0.910046,153
959.232544,47.961628,-131.894485,-342.222229,-357.777771,-185.000000,-0.350018,-1.820091,-0.490025,154
959.232544,71.942444,-143.884888,-344.444458,-357.777771,-182.500000,0.000000,-1.960098,-0.840042,155
959.232544,35.971222,-143.884888,-342.222229,-364.444458,-185.000000,-0.700035,-2.380119,-0.350018,156
935.251770,23.980814,-119.904068,-342.222229,-368.888885,-185.000000,-1.120056,-2.380119,-0.630032,157
959.232544,23.980814,-131.894485,-342.222229,-362.222229,-187.500000,-1.330067,-1.960098,-0.770038,158
959.232544,23.980814,-167.865707,-344.444458,-364.444458,-185.000000,-1.330067,-2.030102,-0.630032,159
959.232544,35.971222,-131.894485,-340.000000,-357.777771,-187.500000,-1.540077,-1.470073,-0.630032,160
983.213379,23.980814,-167.865707,-344.444458,-364.444458,-185.000000,-2.380119,-0.980049,-0.770038,161
995.203796,23.980814,-143.884888,-344.444458,-357.777771,-187.500000,-3.150157,-1.050053,-0.210010,162
959.232544,0.000000,-143.884888,-340.000000,-362.222229,-185.000000,0.630032,-4.200210,0.840042,163
923.261353,0.000000,-143.884888,-344.444458,-362.222229,-185.000000,0.490025,-3.780189,0.910046,164
1031.175049,23.980814,-119.904068,-344.444458,-362.222229,-185.000000,-0.630032,-3.150157,0.560028,165
995.203796,35.971222,-131.894485,-346.666656,-357.777771,-187.500000,-0.980049,-2.800140,1.120056,166
959.232544,23.980814,-95.923256,-342.222229,-362.222229,-182.500000,-2.450123,-1.540077,0.210010,167
971.222961,47.961628,-107.913666,-340.000000,-357.777771,-187.500000,-2.800140,-1.610080,0.210010,168
1007.194214,47.961628,-119.904068,-346.666656,-362.222229,-180.000000,-3.570179,-0.910046,-0.700035,169
983.213379,35.971222,-107.913666,-340.000000,-357.777771,-190.000000,-3.780189,0.070004,-0.840042,170
983.213379,23.980814,-143.884888,-342.222229,-366.666656,-187.500000,-4.620231,1.470073,-1.540077,171
971.222961,35.971222,-155.875290,-342.222229,-360.000000,-185.000000,-4.900245,2.030102,-0.280014,172
983.213379,23.980814,-143.884888,-342.222229,-362.222229,-185.000000,-4.060203,1.890095,-0.630032,173
971.222961,0.000000,-143.884888,-348.888885,-355.555542,-187.500000,-2.100105,-0.070004,-0.840042,174
959.232544,0.000000,-167.865707,-346.666656,-366.666656,-185.000000,-0.910046,-0.210010,-0.350018,175
959.232544,0.000000,-179.856110,-342.222229,-360.000000,-190.000000,-0.420021,-0.770038,-0.980049,176
959.232544,23.980814,-167.865707,-346.666656,-364.444458,-182.500000,0.420021,-0.070004,-1.470073,177
971.222961,35.971222,-143.884888,-344.444458,-355.555542,-187.500000,0.770038,0.000000,-1.190060,178
959.232544,23.980814,-95.923256,-346.666656,-366.666656,-182.500000,-0.560028,0.840042,-0.910046,179
959.232544,47.961628,-131.894485,-342.222229,-364.444458,-190.000000,-1.400070,0.840042,-0.980049,180
959.232544,-23.980814,-119.904068,-344.444458,-360.000000,-187.500000,-1.190060,0.840042,-0.770038,181
959.232544,11.990407,-131.894485,-344.444458,-357.777771,-187.500000,-0.770038,0.560028,-0.910046,182
959.232544,0.000000,-167.865707,-344.444458,-366.666656,-180.000000,0.070004,-0.140007,-0.910046,183
935.251770,35.971222,-155.875290,-342.222229,-362.222229,-190.000000,-0.350018,-0.770038,-0.840042,184
959.232544,23.980814,-71.942444,-346.666656,-362.222229,-182.500000,-0.630032,-0.070004,-0.560028,185
971.222961,11.990407,-143.884888,-342.222229,-357.777771,-187.500000,-1.330067,-0.070004,-0.280014,186
959.232544,23.980814,-167.865707,-344.444458,-366.666656,-182.500000,-0.280014,-0.490025,-0.140007,187
971.222961,59.952034,-155.875290,-342.222229,-357.777771,-187.500000,-0.630032,-0.350018,-0.210010,188
959.232544,0.000000,-119.904068,-342.222229,-360.000000,-187.500000,-0.490025,-1.190060,-0.630032,189
971.222961,59.952034,-143.884888,-342.222229,-355.555542,-185.000000,-0.770038,-0.630032,-1.120056,190
959.232544,23.980814,-143.884888,-346.666656,-364.444458,-182.500000,-1.120056,-1.120056,-0.140007,191
959.232544,23.980814,-131.894485,-342.222229,-357.777771,-187.500000,-0.770038,-1.190060,-0.280014,192
959.232544,23.980814,-143.884888,-344.444458,-364.444458,-182.500000,-0.140007,-1.260063,0.140007,193
971.222961,47.961628,-167.865707,-342.222229,-357.777771,-187.500000,0.420021,-1.330067,-0.770038,194
959.232544,119.904068,-143.884888,-344.444458,-362.222229,-180.000000,-0.070004,-0.980049,-0.980049,195
983.213379,71.942444,-131.894485,-344.444458,-360.000000,-185.000000,-0.350018,-0.840042,-0.700035,196
983.213379,23.980814,-143.884888,-344.444458,-360.000000,-180.000000,-0.560028,-0.770038,-1.050053,197
959.232544,59.952034,-143.884888,-340.000000,-357.777771,-185.000000,-1.400070,-0.980049,-1.050053,198
959.232544,23.980814,-119.904068,-344.444458,-360.000000,-182.500000,-1.610080,-0.350018,-0.630032,199
959.232544,23.980814,-131.894485,-342.222229,-360.000000,-190.000000,-1.330067,-0.490025,-1.610080,200
959.232544,23.980814,-191.846512,-346.666656,-362.222229,-180.000000,-1.050053,-0.280014,-0.630032,201
959.232544,47.961628,-143.884888,-340.000000,-364.444458,-187.500000,-0.210010,-0.280014,-0.770038,202
983.213379,47.961628,-143.884888,-344.444458,-366.666656,-182.500000,0.280014,-0.770038,-0.910046,203
971.222961,47.961628,-119.904068,-346.666656,-357.777771,-190.000000,0.420021,-0.420021,-0.770038,204
959.232544,47.961628,-95.923256,-340.000000,-366.666656,-180.000000,0.070004,-0.490025,-0.840042,205
959.232544,35.971222,-143.884888,-346.666656,-360.000000,-185.000000,-0.490025,-0.840042,-0.630032,206
959.232544,119.904068,-143.884888,-340.000000,-364.444458,-180.000000,-0.490025,-0.490025,0.210010,207
971.222961,95.923256,-143.884888,-340.000000,-357.777771,-187.500000,0.070004,-0.420021,-0.700035,208
983.213379,23.980814,-143.884888,-344.444458,-368.888885,-180.000000,-0.560028,-0.840042,-0.840042,209
983.213379,11.990407,-95.923256,-340.000000,-360.000000,-185.000000,-1.120056,-0.840042,-1.120056,210
935.251770,23.980814,-71.942444,-342.222229,-362.222229,-185.000000,-1.750087,-0.770038,-0.980049,211
947.242188,35.971222,-107.913666,-344.444458,-357.777771,-192.500000,-2.310116,-0.210010,-0.630032,212
983.213379,47.961628,-167.865707,-346.666656,-364.444458,-182.500000,-1.820091,-0.560028,-0.770038,213
971.222961,35.971222,-155.875290,-340.000000,-357.777771,-187.500000,-2.590130,0.070004,-0.140007,214
959.232544,47.961628,-119.904068,-340.000000,-360.000000,-185.000000,-2.310116,1.120056,-0.770038,215
959.232544,23.980814,-95.923256,-342.222229,-357.777771,-187.500000,-2.590130,0.420021,-0.350018,216
1007.194214,47.961628,-167.865707,-344.444458,-366.666656,-185.000000,-1.820091,0.070004,-0.700035,217
995.203796,47.961628,-143.884888,-344.444458,-357.777771,-185.000000,-1.750087,0.070004,-0.700035,218
959.232544,47.961628,-119.904068,-344.444458,-364.444458,-177.500000,-1.330067,-0.210010,-1.260063,219
959.232544,23.980814,-143.884888,-337.777771,-357.777771,-187.500000,-1.120056,-0.630032,-1.050053,220
959.232544,23.980814,-95.923256,-342.222229,-362.222229,-182.500000,-0.770038,-0.350018,-0.350018,221
947.242188,23.980814,-131.894485,-342.222229,-364.444458,-190.000000,-1.890095,0.560028,-1.050053,222
983.213379,23.980814,-95.923256,-344.444458,-360.000000,-185.000000,-2.170109,0.210010,-1.610080,223
959.232544,23.980814,-119.904068,-340.000000,-360.000000,-187.500000,-1.960098,-0.070004,-1.750087,224
959.232544,47.961628,-119.904068,-346.666656,-362.222229,-185.000000,-2.450123,-0.280014,-1.750087,225
971.222961,35.971222,-155.875290,-340.000000,-357.777771,-190.000000,-2.170109,-0.630032,-1.470073,226
959.232544,23.980814,-167.865707,-344.444458,-366.666656,-185.000000,-2.660133,-0.350018,-0.700035,227
959.232544,35.971222,-131.894485,-342.222229,-364.444458,-187.500000,-2.310116,-0.210010,-0.980049,228
983.213379,47.961628,-119.904068,-346.666656,-366.666656,-185.000000,-2.590130,-0.350018,-1.190060,229
971.222961,11.990407,-143.884888,-340.000000,-357.777771,-187.500000,-2.870144,0.070004,-1.050053,230
983.213379,0.000000,-167.865707,-344.444458,-364.444458,-182.500000,-3.010150,-0.420021,-1.610080,231
947.242188,59.952034,-131.894485,-344.444458,-360.000000,-187.500000,-2.660133,-0.700035,-1.260063,232
959.232544,0.000000,-191.846512,-348.888885,-360.000000,-180.000000,-1.540077,-0.560028,-1.540077,233
947.242188,23.980814,-167.865707,-342.222229,-357.777771,-187.500000,-1.400070,-0.280014,-1.050053,234
1007.194214,71.942444,-119.904068,-346.666656,-366.666656,-180.000000,-0.630032,-0.280014,-0.980049,235
995.203796,47.961628,-107.913666,-344.444458,-355.555542,-187.500000,-0.420021,-0.980049,-0.490025,236
959.232544,0.000000,-119.904068,-344.444458,-364.444458,-177.500000,-0.840042,-0.280014,-0.980049,237
971.222961,59.952034,-143.884888,-342.222229,-357.777771,-190.000000,0.070004,-1.050053,-0.700035,238
959.232544,23.980814,-167.865707,-344.444458,-362.222229,-182.500000,0.420021,-0.770038,-0.140007,239
983.213379,47.961628,-167.865707,-342.222229,-362.222229,-182.500000,0.070004,-1.260063,-0.840042,240
959.232544,0.000000,-167.865707,-348.888885,-366.666656,-182.500000,-0.140007,-1.190060,-0.770038,241
947.242188,23.980814,-167.865707,-342.222229,-355.555542,-185.000000,-0.210010,-0.840042,-1.120056,242
959.232544,0.000000,-167.865707,-346.666656,-368.888885,-180.000000,-0.280014,-0.910046,-1.050053,243
959.232544,35.971222,-155.875290,-342.222229,-357.777771,-190.000000,-0.770038,-1.050053,-0.980049,244
959.232544,23.980814,-95.923256,-342.222229,-364.444458,-185.000000,-1.120056,-0.770038,-0.910046,245
959.232544,23.980814,-119.904068,-344.444458,-360.000000,-187.500000,-1.540077,-0.560028,-1.610080,246
983.213379,71.942444,-143.884888,-344.444458,-364.444458,-180.000000,-1.890095,-0.070004,-1.610080,247
959.232544,71.942444,-119.904068,-342.222229,-360.000000,-180.000000,-2.310116,-0.280014,-0.560028,248
983.213379,0.000000,-95.923256,-342.222229,-360.000000,-185.000000,-2.660133,-0.420021,-0.980049,249
983.213379,35.971222,-131.894485,-342.222229,-360.000000,-190.000000,-2.870144,-0.280014,-0.770038,250
983.213379,0.000000,-191.846512,-346.666656,-364.444458,-182.500000,-2.940147,-0.700035,-1.050053,251
971.222961,35.971222,-179.856110,-337.777771,-357.777771,-190.000000,-1.960098,-0.840042,-0.630032,252
935.251770,0.000000,-143.884888,-342.222229,-362.222229,-177.500000,-1.540077,-1.260063,-0.560028,253
959.232544,23.980814,-119.904068,-340.000000,-362.222229,-185.000000,-1.260063,-1.260063,-0.700035,254
959.232544,0.000000,-143.884888,-346.666656,-366.666656,-185.000000,-1.190060,-1.050053,-0.770038,255
947.242188,23.980814,-143.884888,-344.444458,-360.000000,-185.000000,-0.630032,-0.910046,-0.980049,256
959.232544,47.961628,-143.884888,-344.444458,-360.000000,-185.000000,-1.190060,-0.840042,-0.490025,257
971.222961,35.971222,-107.913666,-342.222229,-364.444458,-185.000000,-1.890095,-0.770038,-0.770038,258
959.232544,23.980814,-191.846512,-342.222229,-364.444458,-182.500000,-1.820091,-0.280014,-0.560028,259
947.242188,11.990407,-155.875290,-342.222229,-357.777771,-185.000000,-2.100105,0.140007,-0.700035,260
959.232544,0.000000,-167.865707,-344.444458,-364.444458,-185.000000,-1.820091,0.560028,-0.140007,261
959.232544,35.971222,-155.875290,-340.000000,-362.222229,-190.000000,-2.450123,-0.070004,-0.560028,262
959.232544,23.980814,-143.884888,-342.222229,-362.222229,-182.500000,-1.050053,-1.260063,-0.560028,263
983.213379,47.961628,-131.894485,-344.444458,-355.555542,-185.000000,-0.210010,-1.820091,-0.140007,264
959.232544,0.000000,-95.923256,-342.222229,-360.000000,-185.000000,-0.770038,-1.540077,-0.560028,265
983.213379,11.990407,-155.875290,-346.666656,-357.777771,-185.000000,-0.280014,-1.610080,-0.210010,266
959.232544,119.904068,-215.827332,-346.666656,-364.444458,-185.000000,-0.490025,-0.910046,-1.260063,267
959.232544,47.961628,-131.894485,-342.222229,-360.000000,-187.500000,-0.560028,-1.120056,-1.400070,268
1007.194214,0.000000,-95.923256,-346.666656,-364.444458,-185.000000,0.210010,-1.050053,-1.050053,269
995.203796,11.990407,-131.894485,-342.222229,-360.000000,-187.500000,0.700035,-1.610080,-0.910046,270
983.213379,47.961628,-143.884888,-344.444458,-364.444458,-185.000000,1.610080,-2.380119,0.350018,271
971.222961,11.990407,-155.875290,-344.444458,-360.000000,-187.500000,1.750087,-2.660133,0.280014,272
983.213379,23.980814,-119.904068,-344.444458,-362.222229,-185.000000,2.730137,-2.870144,1.330067,273
959.232544,35.971222,-155.875290,-342.222229,-357.777771,-187.500000,2.660133,-3.010150,2.450123,274
1007.194214,0.000000,-167.865707,-344.444458,-362.222229,-182.500000,3.850193,-3.570179,2.380119,275
971.222961,35.971222,-167.865707,-342.222229,-362.222229,-190.000000,3.500175,-3.080154,2.450123,276
959.232544,23.980814,-143.884888,-344.444458,-362.222229,-177.500000,3.850193,-2.870144,2.800140,277
971.222961,23.980814,-107.913666,-342.222229,-360.000000,-185.000000,2.590130,-2.450123,3.640182,278
983.213379,0.000000,-191.846512,-346.666656,-362.222229,-185.000000,1.890095,-2.030102,3.360168,279
971.222961,35.971222,-155.875290,-342.222229,-355.555542,-185.000000,0.280014,-1.330067,2.450123,280
935.251770,47.961628,-119.904068,-344.444458,-364.444458,-185.000000,0.350018,-0.350018,2.730137,281
959.232544,59.952034,-155.875290,-344.444458,-360.000000,-187.500000,-0.280014,0.000000,1.400070,282
983.213379,71.942444,-143.884888,-344.444458,-362.222229,-185.000000,-0.350018,0.210010,0.700035,283
959.232544,47.961628,-131.894485,-342.222229,-355.555542,-187.500000,-1.680084,0.490025,0.070004,284
935.251770,23.980814,-47.961628,-346.666656,-364.444458,-185.000000,-2.240112,1.190060,-0.560028,285
947.242188,11.990407,-107.913666,-340.000000,-360.000000,-187.500000,-2.380119,1.190060,-0.630032,286
959.232544,23.980814,-95.923256,-346.666656,-360.000000,-185.000000,-2.940147,0.770038,-0.980049,287
971.222961,47.961628,-155.875290,-340.000000,-357.777771,-187.500000,-2.870144,0.910046,-0.840042,288
983.213379,0.000000,-143.884888,-346.666656,-364.444458,-182.500000,-3.570179,0.490025,-1.470073,289
971.222961,11.990407,-119.904068,-340.000000,-360.000000,-185.000000,-2.870144,0.210010,-1.470073,290
983.213379,47.961628,-143.884888,-346.666656,-360.000000,-187.500000,-3.850193,0.070004,-2.940147,291
959.232544,35.971222,-143.884888,-340.000000,-357.777771,-185.000000,-4.690235,0.910046,-3.430171,292
983.213379,71.942444,-167.865707,-342.222229,-364.444458,-182.500000,-4.970249,0.490025,-3.010150,293
971.222961,35.971222,-119.904068,-344.444458,-357.777771,-190.000000,-4.900245,1.470073,-2.660133,294
983.213379,0.000000,-167.865707,-348.888885,-364.444458,-185.000000,-4.690235,2.240112,-1.260063,295
959.232544,0.000000,-143.884888,-340.000000,-360.000000,-187.500000,-2.800140,0.350018,-1.120056,296
983.213379,0.000000,-143.884888,-344.444458,-366.666656,-185.000000,-3.640182,0.560028,-1.820091,297
971.222961,23.980814,-155.875290,-342.222229,-360.000000,-185.000000,-3.990200,1.680084,-1.750087,298
959.232544,23.980814,-119.904068,-346.666656,-355.555542,-185.000000,-4.060203,1.190060,-0.840042,299
947.242188,35.971222,-119.904068,-342.222229,-360.000000,-190.000000,-3.920196,1.330067,-0.490025,300
935.251770,-23.980814,-143.884888,-342.222229,-360.000000,-185.000000,-3.570179,1.960098,-0.560028,301
959.232544,23.980814,-155.875290,-344.444458,-353.333344,-185.000000,-3.080154,1.540077,0.140007,302
959.232544,0.000000,-167.865707,-344.444458,-364.444458,-182.500000,-2.800140,0.770038,0.280014,303
983.213379,35.971222,-143.884888,-342.222229,-355.555542,-187.500000,-2.660133,0.840042,-0.770038,304
959.232544,23.980814,-119.904068,-344.444458,-364.444458,-182.500000,-2.800140,0.280014,-0.560028,305
995.203796,35.971222,-131.894485,-342.222229,-357.777771,-185.000000,-2.940147,0.210010,-0.490025,306
995.203796,35.971222,-131.894485,-344.444458,-357.777771,-185.000000,-2.100105,0.210010,-0.630032,307
959.232544,59.952034,-107.913666,-342.222229,-360.000000,-185.000000,-1.890095,-0.140007,-0.350018,308
1007.194214,-23.980814,-167.865707,-346.666656,-364.444458,-180.000000,-1.470073,0.000000,-0.350018,309
971.222961,11.990407,-143.884888,-342.222229,-355.555542,-190.000000,-1.190060,-0.770038,0.000000,310
983.213379,0.000000,-143.884888,-344.444458,-362.222229,-182.500000,-1.610080,-0.210010,-0.070004,311
983.213379,35.971222,-119.904068,-342.222229,-360.000000,-185.000000,-1.610080,-0.980049,-0.350018,312
959.232544,0.000000,-95.923256,-344.444458,-362.222229,-185.000000,-1.750087,-0.140007,-1.330067,313
983.213379,11.990407,-119.904068,-342.222229,-355.555542,-187.500000,-1.610080,-0.560028,-0.560028,314
959.232544,47.961628,-167.865707,-342.222229,-364.444458,-185.000000,-1.960098,-0.840042,-0.980049,315
959.232544,71.942444,-155.875290,-342.222229,-360.000000,-185.000000,-2.310116,-1.330067,-0.420021,316
959.232544,23.980814,-167.865707,-346.666656,-364.444458,-182.500000,-1.470073,-1.540077,-0.700035,317
959.232544,11.990407,-155.875290,-342.222229,-360.000000,-187.500000,-1.400070,-1.400070,-0.980049,318
959.232544,0.000000,-131.894485,-344.444458,-364.444458,-185.000000,-1.960098,-1.540077,-0.210010,319
983.213379,35.971222,-155.875290,-344.444458,-357.777771,-185.000000,-1.960098,-1.680084,-0.770038,320
935.251770,23.980814,-143.884888,-346.666656,-366.666656,-180.000000,-2.450123,-2.030102,-0.770038,321
971.222961,35.971222,-119.904068,-342.222229,-360.000000,-185.000000,-3.150157,-1.470073,-2.030102,322
959.232544,23.980814,-167.865707,-342.222229,-362.222229,-180.000000,-3.010150,-1.330067,-1.540077,323
959.232544,11.990407,-143.884888,-348.888885,-360.000000,-182.500000,-2.380119,-1.120056,-1.470073,324
935.251770,23.980814,-167.865707,-342.222229,-357.777771,-180.000000,-2.520126,-1.330067,-1.050053,325
971.222961,47.961628,-119.904068,-342.222229,-357.777771,-185.000000,-2.520126,-0.490025,-1.750087,326
959.232544,0.000000,-143.884888,-346.666656,-364.444458,-177.500000,-2.030102,-0.700035,-1.820091,327
983.213379,-11.990407,-143.884888,-344.444458,-357.777771,-190.000000,-1.540077,-0.420021,-1.400070,328
983.213379,0.000000,-167.865707,-346.666656,-368.888885,-180.000000,-1.120056,-0.420021,-1.260063,329
971.222961,11.990407,-131.894485,-344.444458,-355.555542,-185.000000,-0.700035,-0.140007,-1.120056,330
983.213379,47.961628,-143.884888,-346.666656,-362.222229,-180.000000,-0.490025,-0.560028,-1.330067,331
971.222961,47.961628,-155.875290,-344.444458,-357.777771,-185.000000,0.140007,-0.350018,-1.050053,332
1007.194214,47.961628,-95.923256,-344.444458,-360.000000,-185.000000,0.280014,-0.700035,-1.120056,333
971.222961,47.961628,-71.942444,-342.222229,-357.777771,-187.500000,0.560028,-0.560028,-1.260063,334
1031.175049,0.000000,-167.865707,-344.444458,-362.222229,-185.000000,-0.350018,-0.910046,-1.260063,335
983.213379,35.971222,-143.884888,-342.222229,-357.777771,-187.500000,-0.350018,-0.840042,-2.310116,336
983.213379,0.000000,-167.865707,-344.444458,-364.444458,-180.000000,-0.280014,-0.910046,-1.540077,337
959.232544,23.980814,-131.894485,-344.444458,-362.222229,-190.000000,0.350018,-1.050053,-2.100105,338
983.213379,47.961628,-119.904068,-344.444458,-362.222229,-185.000000,0.490025,-0.840042,-2.310116,339
995.203796,59.952034,-119.904068,-344.444458,-360.000000,-187.500000,-0.140007,-1.050053,-1.540077,340
983.213379,71.942444,-167.865707,-342.222229,-362.222229,-182.500000,-0.630032,-0.350018,-1.330067,341
959.232544,35.971222,-143.884888,-346.666656,-357.777771,-185.000000,-1.330067,-0.070004,-2.240112,342
959.232544,47.961628,-143.884888,-340.000000,-366.666656,-180.000000,-1.610080,0.000000,-1.610080,343
971.222961,35.971222,-131.894485,-344.444458,-360.000000,-185.000000,-1.190060,-0.560028,-1.260063,344
959.232544,0.000000,-215.827332,-344.444458,-366.666656,-182.500000,-1.470073,-0.630032,-0.700035,345
947.242188,59.952034,-119.904068,-342.222229,-355.555542,-185.000000,-1.470073,-0.770038,-1.190060,346
959.232544,47.961628,-95.923256,-351.111115,-362.222229,-185.000000,-1.680084,0.070004,-0.840042,347
983.213379,35.971222,-131.894485,-342.222229,-362.222229,-185.000000,-2.240112,-0.630032,-0.490025,348
959.232544,47.961628,-119.904068,-342.222229,-364.444458,-182.500000,-2.310116,-0.350018,-0.910046,349
971.222961,59.952034,-119.904068,-342.222229,-362.222229,-182.500000,-3.080154,-1.050053,-0.140007,350
935.251770,71.942444,-95.923256,-342.222229,-364.444458,-180.000000,-2.800140,-0.770038,0.350018,351
947.242188,35.971222,-155.875290,-342.222229,-357.777771,-187.500000,-3.570179,0.000000,-0.210010,352
959.232544,71.942444,-167.865707,-346.666656,-368.888885,-177.500000,-2.940147,-0.140007,-0.630032,353
959.232544,23.980814,-155.875290,-344.444458,-357.777771,-187.500000,-2.520126,0.070004,-0.560028,354
959.232544,11.990407,-143.884888,-344.444458,-364.444458,-185.000000,-2.310116,0.280014,-0.840042,355
971.222961,23.980814,-167.865707,-342.222229,-357.777771,-187.500000,-1.960098,0.140007,-0.840042,356
959.232544,23.980814,-143.884888,-344.444458,-366.666656,-180.000000,-1.540077,0.070004,-0.280014,357
959.232544,23.980814,-131.894485,-344.444458,-357.777771,-182.500000,-1.610080,-0.210010,-0.140007,358
959.232544,23.980814,-119.904068,-344.444458,-362.222229,-185.000000,-0.560028,-0.770038,-0.280014,359
947.242188,23.980814,-107.913666,-342.222229,-364.444458,-187.500000,-0.140007,-1.330067,0.000000,360
983.213379,71.942444,-167.865707,-346.666656,-364.444458,-185.000000,-0.630032,-1.120056,-0.840042,361
959.232544,47.961628,-143.884888,-342.222229,-357.777771,-185.000000,-0.700035,-1.330067,-0.490025,362
983.213379,23.980814,-167.865707,-344.444458,-362.222229,-177.500000,-1.400070,-1.260063,-0.490025,363
959.232544,23.980814,-131.894485,-340.000000,-360.000000,-187.500000,-0.910046,-0.980049,-0.770038,364
983.213379,95.923256,-119.904068,-344.444458,-364.444458,-180.000000,-0.490025,-1.190060,-0.910046,365
971.222961,71.942444,-155.875290,-342.222229,-357.777771,-187.500000,-0.910046,-1.260063,-1.400070,366
995.203796,35.971222,-143.884888,-342.222229,-360.000000,-182.500000,-0.770038,-1.330067,-1.190060,367
995.203796,11.990407,-131.894485,-342.222229,-355.555542,-185.000000,-1.680084,-0.700035,-0.910046,368
935.251770,71.942444,-143.884888,-344.444458,-364.444458,-182.500000,-2.380119,-0.630032,-1.890095,369
971.222961,35.971222,-131.894485,-342.222229,-360.000000,-185.000000,-2.800140,0.070004,-1.890095,370
959.232544,0.000000,-143.884888,-344.444458,-366.666656,-185.000000,-2.940147,0.070004,-1.190060,371
971.222961,23.980814,-131.894485,-344.444458,-355.555542,-185.000000,-3.150157,0.210010,-0.980049,372
935.251770,0.000000,-119.904068,-346.666656,-362.222229,-187.500000,-3.360168,0.210010,-0.770038,373
971.222961,23.980814,-131.894485,-342.222229,-360.000000,-185.000000,-3.080154,1.260063,-0.280014,374
935.251770,0.000000,-119.904068,-344.444458,-360.000000,-182.500000,-3.290164,1.120056,0.000000,375
959.232544,47.961628,-155.875290,-344.444458,-357.777771,-185.000000,-3.920196,1.750087,0.070004,376
959.232544,23.980814,-143.884888,-346.666656,-366.666656,-182.500000,-4.620231,1.540077,-0.140007,377
971.222961,35.971222,-131.894485,-344.444458,-355.555542,-190.000000,-4.270214,1.890095,0.000000,378
959.232544,47.961628,-143.884888,-346.666656,-360.000000,-185.000000,-4.620231,1.540077,-0.140007,379
959.232544,23.980814,-131.894485,-342.222229,-357.777771,-187.500000,-4.480224,1.400070,0.070004,380
983.213379,95.923256,-155.875290,-346.666656,-364.444458,-177.500000,-2.870144,-1.400070,0.070004,381
959.232544,0.000000,-167.865707,-346.666656,-357.777771,-185.000000,-2.590130,-1.050053,-0.420021,382
959.232544,23.980814,-143.884888,-344.444458,-362.222229,-185.000000,-2.310116,0.140007,0.560028,383
959.232544,0.000000,-191.846512,-342.222229,-355.555542,-180.000000,-3.010150,-0.070004,0.630032,384
959.232544,11.990407,-155.875290,-346.666656,-360.000000,-182.500000,-3.710186,0.490025,-0.210010,385
983.213379,47.961628,-95.923256,-342.222229,-355.555542,-185.000000,-4.340217,0.770038,0.280014,386
971.222961,35.971222,-119.904068,-344.444458,-364.444458,-177.500000,-5.460273,1.400070,-0.140007,387
959.232544,47.961628,-143.884888,-346.666656,-357.777771,-185.000000,-5.670284,2.450123,0.280014,388
959.232544,71.942444,-131.894485,-346.666656,-364.444458,-180.000000,-5.040252,3.640182,0.840042,389
959.232544,0.000000,-167.865707,-342.222229,-360.000000,-185.000000,-5.250263,3.150157,0.560028,390
971.222961,23.980814,-131.894485,-344.444458,-362.222229,-180.000000,-5.040252,3.290164,-0.420021,391
959.232544,47.961628,-143.884888,-344.444458,-360.000000,-182.500000,-4.900245,2.660133,0.070004,392
935.251770,47.961628,-179.856110,-348.888885,-364.444458,-180.000000,-3.920196,2.800140,0.350018,393
959.232544,23.980814,-143.884888,-344.444458,-360.000000,-185.000000,-3.360168,2.100105,0.210010,394
947.242188,59.952034,-131.894485,-344.444458,-360.000000,-180.000000,-2.520126,0.420021,-1.330067,395
959.232544,47.961628,-143.884888,-342.222229,-357.777771,-185.000000,-1.680084,0.420021,-0.070004,396
959.232544,47.961628,-119.904068,-346.666656,-364.444458,-180.000000,-1.610080,0.630032,-0.840042,397
959.232544,119.904068,-143.884888,-344.444458,-360.000000,-185.000000,-1.190060,0.140007,-1.190060,398
971.222961,59.952034,-155.875290,-342.222229,-360.000000,-182.500000,-1.960098,0.560028,-1.050053,399
959.232544,23.980814,-119.904068,-342.222229,-362.222229,-180.000000,-2.660133,0.140007,-0.910046,400
971.222961,23.980814,-119.904068,-342.222229,-357.777771,-180.000000,-2.660133,0.210010,-1.960098,401
983.213379,23.980814,-119.904068,-344.444458,-353.333344,-185.000000,-2.660133,-0.140007,-2.100105,402
971.222961,11.990407,-143.884888,-344.444458,-364.444458,-180.000000,-3.150157,-0.490025,-2.940147,403
983.213379,23.980814,-119.904068,-340.000000,-357.777771,-182.500000,-3.570179,-0.560028,-2.870144,404
959.232544,35.971222,-107.913666,-346.666656,-366.666656,-180.000000,-3.430171,0.210010,-3.150157,405
983.213379,47.961628,-191.846512,-344.444458,-362.222229,-182.500000,-3.990200,-0.280014,-2.800140,406
983.213379,23.980814,-167.865707,-344.444458,-362.222229,-182.500000,-3.710186,0.280014,-3.500175,407
1007.194214,47.961628,-167.865707,-486.666656,-506.666656,-257.500000,-4.270214,0.560028,-3.150157,408
971.222961,23.980814,-119.904068,-346.666656,-362.222229,-182.500000,-4.410221,0.910046,-2.800140,409
959.232544,47.961628,-143.884888,-340.000000,-360.000000,-180.000000,-3.990200,0.770038,-2.730137,410
971.222961,47.961628,-143.884888,-348.888885,-366.666656,-180.000000,-3.500175,0.490025,-2.870144,411
983.213379,47.961628,-143.884888,-344.444458,-360.000000,-187.500000,-2.730137,0.490025,-2.520126,412
971.222961,47.961628,-155.875290,-348.888885,-364.444458,-180.000000,-2.100105,0.700035,-2.310116,413
935.251770,47.961628,-143.884888,-340.000000,-355.555542,-182.500000,-1.610080,0.280014,-2.100105,414
959.232544,47.961628,-119.904068,-346.666656,-366.666656,-177.500000,-0.630032,-0.770038,-1.680084,415
959.232544,0.000000,-191.846512,-346.666656,-357.777771,-182.500000,-0.560028,-1.120056,-1.470073,416
959.232544,35.971222,-167.865707,-344.444458,-362.222229,-182.500000,-0.350018,-1.540077,-0.560028,417
959.232544,23.980814,-143.884888,-344.444458,-355.555542,-177.500000,-0.140007,-1.050053,-0.350018,418
983.213379,23.980814,-131.894485,-344.444458,-364.444458,-177.500000,0.840042,-1.890095,0.910046,419
911.270935,23.980814,-143.884888,-342.222229,-353.333344,-185.000000,0.980049,-1.540077,-0.560028,420
959.232544,23.980814,-131.894485,-344.444458,-364.444458,-177.500000,0.490025,-1.820091,0.350018,421
935.251770,47.961628,-143.884888,-344.444458,-357.777771,-185.000000,0.770038,-1.750087,0.070004,422
959.232544,35.971222,-155.875290,-348.888885,-364.444458,-177.500000,1.400070,-2.170109,1.050053,423
959.232544,23.980814,-191.846512,-344.444458,-357.777771,-182.500000,0.980049,-3.640182,0.700035,424
983.213379,11.990407,-155.875290,-346.666656,-360.000000,-177.500000,2.100105,-3.220161,0.350018,425
1031.175049,47.961628,-167.865707,-346.666656,-364.444458,-182.500000,1.540077,-3.430171,0.000000,426
995.203796,35.971222,-167.865707,-351.111115,-364.444458,-180.000000,1.680084,-3.430171,-0.070004,427
1007.194214,95.923256,-143.884888,-342.222229,-357.777771,-182.500000,1.120056,-3.430171,-0.700035,428
971.222961,59.952034,-119.904068,-346.666656,-364.444458,-180.000000,1.120056,-3.920196,-0.700035,429
959.232544,0.000000,-119.904068,-346.666656,-360.000000,-185.000000,1.890095,-3.850193,-0.980049,430
959.232544,59.952034,-143.884888,-342.222229,-364.444458,-180.000000,1.050053,-3.780189,-0.560028,431
983.213379,47.961628,-71.942444,-342.222229,-362.222229,-185.000000,0.070004,-2.870144,-0.770038,432
971.222961,59.952034,-95.923256,-344.444458,-362.222229,-180.000000,-0.560028,-1.960098,-0.490025,433
959.232544,23.980814,-95.923256,-346.666656,-362.222229,-177.500000,-0.280014,-1.610080,-0.560028,434
959.232544,23.980814,-119.904068,-344.444458,-364.444458,-182.500000,-1.120056,-0.770038,-1.050053,435
959.232544,0.000000,-143.884888,-340.000000,-362.222229,-187.500000,-1.470073,-0.280014,-0.980049,436
971.222961,11.990407,-155.875290,-348.888885,-366.666656,-180.000000,-1.960098,-0.840042,-0.350018,437
935.251770,23.980814,-143.884888,-346.666656,-357.777771,-182.500000,-2.240112,-1.400070,-0.770038,438
935.251770,59.952034,-167.865707,-346.666656,-366.666656,-180.000000,-1.820091,-3.570179,-0.770038,439
959.232544,23.980814,-167.865707,-342.222229,-362.222229,-185.000000,-0.700035,-6.160308,-1.050053,440
971.222961,23.980814,-167.865707,-344.444458,-368.888885,-180.000000,-0.210010,-7.070354,-1.470073,441
983.213379,23.980814,-143.884888,-344.444458,-362.222229,-185.000000,0.070004,-9.310466,-2.170109,442
971.222961,23.980814,-179.856110,-344.444458,-360.000000,-180.000000,0.770038,-13.020651,-2.310116,443
959.232544,0.000000,-143.884888,-344.444458,-357.777771,-182.500000,2.310116,-16.030802,-1.610080,444
959.232544,35.971222,-155.875290,-346.666656,-366.666656,-177.500000,2.800140,-15.820791,0.140007,445
959.232544,71.942444,-143.884888,-344.444458,-362.222229,-180.000000,4.130207,-13.300665,2.380119,446
959.232544,59.952034,-155.875290,-344.444458,-366.666656,-175.000000,3.990200,-9.240462,4.900245,447
983.213379,23.980814,-167.865707,-342.222229,-360.000000,-185.000000,4.690235,-5.950297,7.280364,448
971.222961,35.971222,-167.865707,-346.666656,-362.222229,-177.500000,5.180259,-3.010150,9.450473,449
983.213379,47.961628,-191.846512,-348.888885,-364.444458,-185.000000,6.370318,-0.980049,10.080504,450
959.232544,35.971222,-179.856110,-348.888885,-360.000000,-182.500000,9.240462,1.680084,9.730487,451
959.232544,71.942444,-239.808136,-342.222229,-360.000000,-185.000000,6.230311,1.960098,-4.830242,452
995.203796,35.971222,-143.884888,-348.888885,-364.444458,-180.000000,7.210361,3.780189,-5.460273,453
983.213379,0.000000,-95.923256,-340.000000,-357.777771,-187.500000,14.490725,4.760238,-5.460273,454
983.213379,23.980814,-143.884888,-346.666656,-366.666656,-182.500000,24.361217,3.500175,-5.670284,455
1270.983154,71.942444,-143.884888,-342.222229,-360.000000,-185.000000,36.261814,2.730137,-8.050403,456
1258.992798,23.980814,-167.865707,-342.222229,-366.666656,-185.000000,50.052502,1.540077,-13.510675,457
1294.963989,0.000000,-239.808136,-340.000000,-360.000000,-190.000000,58.382919,1.120056,-12.600630,458
1378.896851,35.971222,-131.894485,-340.000000,-364.444458,-187.500000,67.693382,6.580329,-3.850193,459
1534.772095,23.980814,-191.846512,-342.222229,-366.666656,-195.000000,70.493523,7.210361,2.940147,460
1534.772095,0.000000,-155.875290,-340.000000,-364.444458,-195.000000,78.683937,10.710536,6.650332,461
1558.752930,0.000000,-71.942444,-333.333344,-362.222229,-205.000000,97.024849,14.350718,8.190410,462
1534.772095,0.000000,-71.942444,-337.777771,-368.888885,-202.500000,105.775291,10.850543,5.040252,463
1342.925659,95.923256,-95.923256,-335.555542,-360.000000,-210.000000,116.345818,11.480575,7.560378,464
1342.925659,23.980814,-59.952034,-337.777771,-364.444458,-207.500000,124.886246,12.600630,11.270564,465
1342.925659,0.000000,-647.481995,-335.555542,-357.777771,-217.500000,141.617081,17.710886,12.460623,466
1282.973511,-35.971222,-23.980814,-333.333344,-362.222229,-220.000000,198.109909,41.582081,17.500875,467
1079.136597,71.942444,119.904068,-326.666656,-360.000000,-232.500000,198.809937,32.061604,-1.050053,468
1151.079102,23.980814,83.932854,-324.444458,-364.444458,-237.500000,201.540085,18.410921,-9.730487,469
1223.021484,-71.942444,-23.980814,-320.000000,-353.333344,-250.000000,216.590836,14.770739,-18.620932,470
983.213379,23.980814,-383.693024,-313.333344,-366.666656,-260.000000,304.235229,46.132309,-37.521877,471
1055.155884,119.904068,239.808136,-300.000000,-360.000000,-275.000000,409.030457,107.595383,-45.852295,472
1031.175049,47.961628,407.673828,-295.555542,-364.444458,-287.500000,422.261108,94.084702,-69.933495,473
2853.716797,-143.884888,215.827332,-284.444458,-357.777771,-300.000000,390.549530,50.542526,-78.543930,474
2122.302002,-11.990407,227.817734,-275.555542,-366.666656,-305.000000,416.730835,22.331118,-109.975502,475
839.328491,23.980814,383.693024,-262.222229,-364.444458,-317.500000,398.739929,-3.360168,-113.265663,476
719.424438,0.000000,311.750580,-248.888885,-366.666656,-325.000000,354.707733,-22.331118,-106.825340,477
527.577942,23.980814,71.942444,-231.111115,-371.111115,-342.500000,340.637024,-20.791040,-99.824989,478
563.549133,35.971222,59.952034,-222.222229,-382.222229,-347.500000,316.135803,0.980049,-82.254112,479
575.539551,47.961628,263.788971,-211.111115,-375.555542,-362.500000,286.104309,23.381168,-65.313263,480
587.529968,47.961628,299.760193,-208.888885,-377.777771,-360.000000,246.482330,28.981449,-49.772488,481
623.501160,119.904068,503.597107,-202.222229,-377.777771,-365.000000,202.800140,21.071054,-37.381870,482
755.395630,119.904068,479.616272,-200.000000,-380.000000,-367.500000,163.668182,10.290515,-26.601330,483
983.213379,0.000000,623.501160,-193.333328,-375.555542,-370.000000,137.696884,-0.070004,-20.651033,484
1091.127075,71.942444,623.501160,-186.666672,-380.000000,-372.500000,116.835846,-23.241163,-25.131256,485
1199.040771,191.846512,695.443604,-182.222229,-377.777771,-377.500000,113.265663,-41.792091,-35.841793,486
1235.011963,203.836914,731.414856,-182.222229,-388.888885,-380.000000,128.036407,-51.802589,-48.652431,487
1318.944824,239.808136,887.290100,-171.111115,-386.666656,-382.500000,150.017502,-58.942947,-66.363319,488
971.222961,215.827332,803.357300,-168.888885,-393.333344,-380.000000,178.998947,-62.723137,-64.123207,489
767.386047,239.808136,575.539551,-162.222229,-395.555542,-385.000000,190.899551,-61.043053,-52.082603,490
767.386047,239.808136,515.587524,-155.555557,-400.000000,-385.000000,208.260422,-52.012600,-50.892544,491
743.405273,191.846512,575.539551,-148.888885,-393.333344,-390.000000,220.020996,-36.541828,-54.462723,492
671.462830,215.827332,623.501160,-142.222229,-397.777771,-387.500000,229.681488,-29.121456,-56.842842,493
575.539551,215.827332,623.501160,-135.555557,-402.222229,-395.000000,226.811340,-34.021702,-52.012600,494
587.529968,155.875290,539.568298,-120.000000,-411.111115,-395.000000,218.900940,-45.782291,-43.262165,495
551.558716,215.827332,455.635468,-111.111115,-406.666656,-397.500000,217.710892,-52.572628,-36.261814,496
539.568298,203.836914,383.693024,-108.888885,-415.555542,-397.500000,209.800491,-48.232410,-31.571579,497
479.616272,167.865707,359.712219,-93.333336,-411.111115,-402.500000,198.879944,-36.121807,-25.691284,498
491.606689,167.865707,383.693024,-93.333336,-420.000000,-402.500000,196.289810,-25.761288,-20.441023,499
455.635468,167.865707,503.597107,-86.666664,-411.111115,-410.000000,198.809937,-21.001051,-14.490725,500
455.635468,155.875290,491.606689,-80.000000,-420.000000,-405.000000,197.829895,-26.251312,-7.560378,501
431.654663,215.827332,455.635468,-73.333336,-420.000000,-412.500000,196.569824,-27.861393,-2.380119,502
503.597107,203.836914,467.625885,-64.444443,-422.222229,-410.000000,197.479874,-26.391319,1.610080,503
527.577942,167.865707,455.635468,-55.555557,-424.444458,-412.500000,208.120407,-19.670984,9.870494,504
731.414856,167.865707,455.635468,-51.111111,-426.666656,-412.500000,218.410919,-10.290515,11.620582,505
623.501160,0.000000,503.597107,-42.222221,-422.222229,-422.500000,211.970596,-4.060203,-5.250263,506
551.558716,35.971222,479.616272,-37.777779,-428.888885,-415.000000,221.841095,-7.280364,-9.870494,507
407.673828,119.904068,479.616272,-28.888889,-420.000000,-420.000000,251.662582,-13.650682,1.820091,508
359.712219,167.865707,587.529968,-20.000000,-428.888885,-417.500000,271.543579,-14.630732,11.270564,509
287.769775,191.846512,647.481995,-11.111111,-424.444458,-420.000000,253.832687,-23.521175,25.131256,510
335.731415,191.846512,647.481995,-4.444445,-431.111115,-417.500000,225.761292,-24.851242,41.932098,511
503.597107,215.827332,719.424438,4.444445,-426.666656,-425.000000,199.089951,-20.931047,52.782639,512
491.606689,215.827332,755.395630,4.444445,-433.333344,-417.500000,180.049011,-19.950998,60.203011,513
575.539551,239.808136,839.328491,13.333333,-428.888885,-422.500000,173.958694,-27.231361,62.163109,514
395.683441,203.836914,647.481995,13.333333,-433.333344,-417.500000,185.229263,-32.271614,66.293312,515
791.366882,455.635468,1199.040771,20.000000,-433.333344,-422.500000,211.550583,-42.562130,69.513474,516
587.529968,323.740997,923.261353,26.666666,-440.000000,-420.000000,160.448029,-57.052853,48.232410,517
719.424438,-95.923256,455.635468,28.888889,-435.555542,-420.000000,123.976204,-52.642632,36.261814,518
503.597107,191.846512,731.414856,33.333332,-437.777771,-417.500000,136.926849,-51.172558,10.710536,519
335.731415,191.846512,815.347656,42.222221,-442.222229,-420.000000,145.817291,-52.152607,1.470073,520
287.769775,167.865707,767.386047,44.444443,-453.333344,-412.500000,155.617783,-58.172909,-1.050053,521
263.788971,95.923256,695.443604,51.111111,-448.888885,-412.500000,168.778442,-66.363319,0.910046,522
263.788971,95.923256,683.453186,55.555557,-455.555542,-402.500000,184.249222,-71.753586,7.560378,523
263.788971,215.827332,743.405273,64.444443,-453.333344,-410.000000,193.279663,-73.853691,12.880644,524
227.817734,275.779358,779.376465,62.222221,-460.000000,-400.000000,194.119705,-67.623383,15.680784,525
191.846512,263.788971,911.270935,71.111115,-457.777771,-407.500000,181.799088,-56.632832,20.371019,526
191.846512,215.827332,815.347656,73.333336,-460.000000,-405.000000,173.748688,-49.562477,19.110956,527
191.846512,215.827332,695.443604,88.888885,-460.000000,-397.500000,159.607986,-38.151909,17.570879,528
203.836914,215.827332,695.443604,84.444443,-468.888885,-397.500000,142.597137,-25.621281,14.210711,529
239.808136,215.827332,743.405273,93.333336,-460.000000,-400.000000,129.016449,-15.680784,4.340217,530
215.827332,227.817734,719.424438,95.555557,-462.222229,-397.500000,118.165909,-9.730487,-9.170459,531
191.846512,191.846512,719.424438,100.000000,-462.222229,-400.000000,104.935249,-9.590480,-18.340918,532
191.846512,179.856110,731.414856,100.000000,-471.111115,-392.500000,89.674484,-11.340568,-24.991249,533
311.750580,0.000000,599.520386,108.888885,-468.888885,-395.000000,79.944000,-12.600630,-31.851593,534
227.817734,143.884888,647.481995,111.111115,-462.222229,-395.000000,90.024506,-15.330767,-45.992302,535
119.904068,239.808136,839.328491,113.333336,-462.222229,-392.500000,89.674484,-9.870494,-33.111656,536
167.865707,191.846512,827.338074,120.000000,-471.111115,-392.500000,98.844940,-4.690235,-20.511026,537
167.865707,215.827332,863.309326,126.666664,-462.222229,-392.500000,116.555832,2.310116,-8.610431,538
179.856110,215.827332,863.309326,131.111115,-471.111115,-387.500000,129.996506,5.460273,1.190060,539
167.865707,215.827332,839.328491,133.333328,-466.666656,-395.000000,137.346863,10.010501,4.200210,540
191.846512,215.827332,851.318909,133.333328,-471.111115,-387.500000,161.078049,13.300665,7.840392,541
71.942444,239.808136,839.328491,146.666672,-466.666656,-387.500000,193.839691,16.450823,11.620582,542
95.923256,227.817734,863.309326,146.666672,-468.888885,-385.000000,218.830948,20.441023,16.940847,543
71.942444,263.788971,935.251770,151.111115,-471.111115,-387.500000,227.651382,22.961149,17.990900,544
95.923256,251.798553,923.261353,162.222229,-464.444458,-382.500000,223.381165,22.121107,18.130907,545
23.980814,239.808136,983.213379,171.111115,-462.222229,-382.500000,207.070358,19.040953,20.931047,546
59.952034,215.827332,959.232544,171.111115,-468.888885,-377.500000,177.808899,13.790689,24.851242,547
47.961628,263.788971,863.309326,177.777771,-460.000000,-382.500000,152.397629,6.440322,29.471474,548
83.932854,251.798553,851.318909,177.777771,-471.111115,-375.000000,142.387115,1.050053,32.761639,549
119.904068,191.846512,767.386047,184.444443,-466.666656,-375.000000,145.467270,-4.480224,32.341618,550
95.923256,203.836914,791.366882,184.444443,-473.333344,-372.500000,146.377319,-10.710536,31.991600,551
23.980814,239.808136,839.328491,188.888885,-468.888885,-372.500000,142.387115,-14.280714,32.131607,552
0.000000,203.836914,887.290100,193.333328,-473.333344,-370.000000,124.396217,-20.371019,32.131607,553
-119.904068,263.788971,887.290100,195.555557,-471.111115,-365.000000,99.824989,-28.141407,30.451523,554
-71.942444,251.798553,923.261353,195.555557,-477.777771,-360.000000,83.024155,-35.211761,27.231361,555
-71.942444,263.788971,887.290100,200.000000,-471.111115,-362.500000,82.044106,-40.182011,23.171160,556
-59.952034,263.788971,851.318909,200.000000,-484.444458,-355.000000,93.244659,-41.722088,20.581030,557
-47.961628,287.769775,791.366882,202.222229,-480.000000,-360.000000,109.905495,-36.891846,18.480925,558
-71.942444,263.788971,767.386047,204.444443,-482.222229,-352.500000,127.896393,-26.531326,15.610781,559
-71.942444,215.827332,695.443604,208.888885,-480.000000,-352.500000,144.557236,-15.960798,12.810640,560
-59.952034,203.836914,671.462830,213.333328,-482.222229,-350.000000,163.318161,-7.980399,7.840392,561
0.000000,239.808136,647.481995,224.444443,-477.777771,-347.500000,187.819397,-1.960098,3.290164,562
0.000000,227.817734,647.481995,224.444443,-484.444458,-342.500000,212.810638,2.030102,-2.800140,563
0.000000,263.788971,599.520386,233.333328,-482.222229,-340.000000,229.891495,3.570179,-6.790339,564
-23.980814,215.827332,623.501160,240.000000,-480.000000,-332.500000,261.813080,7.280364,-10.430522,565
-95.923256,167.865707,551.558716,248.888885,-482.222229,-332.500000,284.004211,12.040602,-10.710536,566
-107.913666,215.827332,611.510742,251.111115,-484.444458,-325.000000,296.184814,15.960798,-10.500525,567
-215.827332,191.846512,695.443604,264.444458,-475.555542,-325.000000,294.224701,13.160658,-6.230311,568
-191.846512,203.836914,623.501160,266.666656,-475.555542,-312.500000,271.543579,7.280364,8.120406,569
-191.846512,167.865707,719.424438,271.111115,-480.000000,-310.000000,275.673798,3.780189,4.410221,570
-203.836914,179.856110,659.472412,284.444458,-484.444458,-297.500000,285.404266,6.020301,-0.210010,571
-239.808136,215.827332,695.443604,293.333344,-477.777771,-300.000000,293.244659,13.720686,-3.640182,572
-263.788971,227.817734,719.424438,295.555542,-484.444458,-287.500000,290.724548,27.021351,-2.940147,573
-383.693024,239.808136,767.386047,304.444458,-480.000000,-290.000000,282.674133,33.741688,-3.710186,574
-383.693024,287.769775,767.386047,308.888885,-484.444458,-277.500000,281.904083,35.071754,-6.300315,575
-455.635468,359.712219,911.270935,317.777771,-477.777771,-277.500000,284.074219,36.541828,-14.070704,576
-443.645050,323.740997,911.270935,324.444458,-475.555542,-265.000000,280.994049,39.411972,-16.520826,577
-455.635468,287.769775,863.309326,326.666656,-475.555542,-265.000000,277.913910,42.422123,-18.130907,578
-491.606689,251.798553,851.318909,337.777771,-480.000000,-252.500000,275.253754,47.322365,-25.691284,579
-527.577942,239.808136,791.366882,346.666656,-471.111115,-250.000000,271.473572,51.732586,-34.791740,580
-515.587524,287.769775,803.357300,346.666656,-473.333344,-237.500000,266.923340,56.422821,-35.071754,581
-527.577942,263.788971,743.405273,360.000000,-462.222229,-240.000000,252.082611,61.043053,-34.161709,582
-515.587524,263.788971,695.443604,360.000000,-468.888885,-232.500000,246.202316,64.403221,-34.721737,583
-551.558716,215.827332,623.501160,366.666656,-466.666656,-232.500000,253.832687,72.523628,-31.851593,584
-551.558716,155.875290,563.549133,371.111115,-466.666656,-220.000000,266.923340,76.163811,-33.741688,585
-599.520386,239.808136,479.616272,373.333344,-457.777771,-217.500000,283.234161,77.143860,-35.771790,586
-551.558716,203.836914,479.616272,382.222229,-460.000000,-205.000000,295.694794,86.174309,-28.631432,587
-503.597107,95.923256,455.635468,391.111115,-451.111115,-205.000000,300.175018,86.874344,-22.751139,588
-659.472412,155.875290,455.635468,393.333344,-457.777771,-192.500000,305.355286,83.514175,-25.131256,589
-719.424438,119.904068,407.673828,397.777771,-448.888885,-185.000000,319.075958,79.663986,-31.501575,590
-719.424438,71.942444,455.635468,400.000000,-453.333344,-175.000000,317.885895,82.954147,-21.771090,591
-767.386047,-23.980814,431.654663,404.444458,-444.444458,-172.500000,303.255157,74.833740,-12.600630,592
-923.261353,131.894485,467.625885,408.888885,-453.333344,-160.000000,293.174652,48.722435,-24.151207,593
-839.328491,71.942444,575.539551,408.888885,-444.444458,-160.000000,284.284210,13.580679,-36.681835,594
-899.280518,47.961628,551.558716,422.222229,-444.444458,-145.000000,261.673096,29.401470,-19.320967,595
-959.232544,167.865707,527.577942,424.444458,-440.000000,-137.500000,211.130554,20.091005,-14.280714,596
-983.213379,155.875290,479.616272,422.222229,-444.444458,-130.000000,195.869797,7.210361,-20.231012,597
-983.213379,167.865707,431.654663,426.666656,-440.000000,-125.000000,197.759888,2.520126,-28.211411,598
-1079.136597,167.865707,443.645050,428.888885,-444.444458,-115.000000,226.111313,15.680784,-47.322365,599
-1007.194214,215.827332,479.616272,431.111115,-435.555542,-110.000000,226.041306,16.310816,-51.032551,600
-959.232544,179.856110,407.673828,431.111115,-440.000000,-105.000000,218.690933,9.800490,-52.012600,601
-839.328491,167.865707,335.731415,433.333344,-433.333344,-100.000000,217.710892,2.800140,-57.822891,602
-863.309326,107.913666,263.788971,435.555542,-433.333344,-92.500000,214.490723,3.220161,-52.012600,603
-887.290100,-191.846512,119.904068,440.000000,-428.888885,-80.000000,203.920197,-1.260063,-43.122158,604
-971.222961,11.990407,-131.894485,442.222229,-433.333344,-65.000000,208.120407,-30.031502,-61.883095,605
-1103.117432,287.769775,479.616272,446.666656,-424.444458,-62.500000,255.092758,-52.292614,-85.054253,606
-1043.165405,239.808136,323.740997,446.666656,-428.888885,-50.000000,174.238708,-57.822891,-30.661533,607
-911.270935,0.000000,143.884888,448.888885,-422.222229,-47.500000,171.158554,-43.892197,-17.920897,608
-815.347656,83.932854,227.817734,444.444458,-424.444458,-35.000000,163.458176,-49.702484,-7.630382,609
-767.386047,167.865707,335.731415,442.222229,-420.000000,-35.000000,141.057053,-56.702835,8.750438,610
-503.597107,383.693024,611.510742,444.444458,-422.222229,-25.000000,131.746582,-16.450823,40.462025,611
-887.290100,167.865707,479.616272,444.444458,-426.666656,-22.500000,106.545326,3.500175,57.262863,612
-911.270935,131.894485,383.693024,437.777771,-431.111115,-15.000000,83.374168,-9.660483,48.792439,613
-959.232544,167.865707,239.808136,444.444458,-428.888885,-15.000000,78.613930,-22.751139,46.342319,614
-1031.175049,143.884888,263.788971,435.555542,-435.555542,-15.000000,72.663635,-18.620932,41.022053,615
-1103.117432,191.846512,167.865707,442.222229,-433.333344,-12.500000,69.023453,-15.610781,32.341618,616
-1103.117432,191.846512,155.875290,433.333344,-435.555542,-5.000000,74.623734,-22.121107,23.451172,617
-1223.021484,167.865707,167.865707,435.555542,-431.111115,-2.500000,84.564232,-30.801540,20.021002,618
-1199.040771,179.856110,179.856110,437.777771,-433.333344,2.500000,93.034653,-27.441372,12.460623,619
-1223.021484,191.846512,239.808136,435.555542,-433.333344,7.500000,87.714386,-22.891146,6.160308,620
-1211.031128,215.827332,215.827332,437.777771,-435.555542,10.000000,76.863846,-20.651033,-1.120056,621
-1318.944824,215.827332,167.865707,433.333344,-428.888885,7.500000,66.083305,-17.570879,-4.620231,622
-1342.925659,179.856110,191.846512,433.333344,-440.000000,17.500000,55.932796,-16.450823,-5.950297,623
-1342.925659,191.846512,167.865707,433.333344,-431.111115,12.500000,42.072105,-19.180960,-5.740287,624
-1306.954346,179.856110,191.846512,431.111115,-435.555542,22.500000,25.271263,-22.961149,-6.860343,625
-1247.002319,191.846512,191.846512,435.555542,-424.444458,17.500000,17.430872,-22.821142,-7.840392,626
-1187.050293,167.865707,179.856110,431.111115,-433.333344,25.000000,3.780189,-21.211061,-11.340568,627
-1103.117432,167.865707,119.904068,433.333344,-428.888885,20.000000,-8.120406,-19.810991,-14.910746,628
-1043.165405,167.865707,107.913666,435.555542,-431.111115,22.500000,-14.280714,-17.990900,-19.810991,629
-1007.194214,191.846512,143.884888,437.777771,-426.666656,17.500000,-16.800840,-16.170809,-22.751139,630
-971.222961,191.846512,167.865707,428.888885,-431.111115,22.500000,-22.541128,-16.310816,-22.331118,631
-959.232544,167.865707,167.865707,437.777771,-422.222229,17.500000,-32.341618,-17.990900,-19.740988,632
-947.242188,143.884888,155.875290,435.555542,-431.111115,20.000000,-42.702137,-21.701086,-15.680784,633
-935.251770,191.846512,167.865707,437.777771,-422.222229,20.000000,-50.262512,-22.821142,-11.620582,634
-923.261353,143.884888,119.904068,435.555542,-426.666656,17.500000,-55.092754,-19.250963,-7.350368,635
-983.213379,143.884888,47.961628,437.777771,-426.666656,15.000000,-57.262863,-12.810640,-5.950297,636
-983.213379,131.894485,107.913666,440.000000,-426.666656,15.000000,-57.682884,-5.600280,-4.970249,637
-863.309326,143.884888,119.904068,442.222229,-420.000000,2.500000,-56.422821,-2.660133,-4.060203,638
-923.261353,167.865707,95.923256,440.000000,-428.888885,15.000000,-51.102554,2.380119,-2.660133,639
-863.309326,119.904068,23.980814,442.222229,-426.666656,2.500000,-42.352119,5.950297,-1.260063,640
-911.270935,107.913666,59.952034,440.000000,-428.888885,7.500000,-29.401470,8.050403,-0.350018,641
-959.232544,95.923256,95.923256,440.000000,-422.222229,0.000000,-13.230661,11.410571,1.050053,642
-947.242188,131.894485,107.913666,437.777771,-431.111115,5.000000,-1.190060,13.720686,4.200210,643
-959.232544,95.923256,191.846512,440.000000,-422.222229,0.000000,7.210361,12.810640,4.690235,644
-983.213379,143.884888,191.846512,440.000000,-424.444458,2.500000,10.640532,10.710536,5.110256,645
-959.232544,143.884888,215.827332,442.222229,-424.444458,-2.500000,9.380469,7.630382,4.970249,646
-983.213379,167.865707,215.827332,440.000000,-431.111115,7.500000,7.280364,5.040252,2.450123,647
-1007.194214,143.884888,239.808136,442.222229,-424.444458,0.000000,6.440322,2.590130,-2.030102,648
-1007.194214,143.884888,215.827332,435.555542,-431.111115,7.500000,7.630382,0.420021,-7.560378,649
-983.213379,191.846512,167.865707,442.222229,-424.444458,2.500000,9.450473,-0.420021,-12.670633,650
-1019.184631,167.865707,203.836914,435.555542,-433.333344,7.500000,10.150508,-1.890095,-15.190760,651
-1031.175049,143.884888,191.846512,444.444458,-426.666656,5.000000,11.200561,-1.540077,-19.880995,652
-995.203796,167.865707,203.836914,440.000000,-424.444458,7.500000,11.620582,-0.210010,-23.871193,653
-1031.175049,143.884888,215.827332,442.222229,-422.222229,5.000000,11.900595,2.520126,-25.411270,654
-995.203796,155.875290,203.836914,444.444458,-420.000000,5.000000,12.390619,5.880294,-25.201260,655
-935.251770,95.923256,191.846512,442.222229,-417.777771,7.500000,15.750788,10.010501,-24.921246,656
-911.270935,143.884888,191.846512,442.222229,-428.888885,12.500000,23.101156,14.140707,-25.061253,657
-887.290100,119.904068,191.846512,444.444458,-420.000000,10.000000,23.171160,13.300665,-21.771090,658
-875.299744,107.913666,167.865707,442.222229,-424.444458,12.500000,24.431221,12.110605,-18.900946,659
-863.309326,143.884888,167.865707,448.888885,-417.777771,5.000000,29.051453,12.390619,-16.940847,660
-839.328491,119.904068,167.865707,444.444458,-420.000000,7.500000,31.641582,11.550578,-13.790689,661
-863.309326,143.884888,167.865707,442.222229,-417.777771,7.500000,33.041653,9.800490,-9.240462,662
-899.280518,167.865707,167.865707,442.222229,-417.777771,15.000000,34.161709,8.960448,-7.280364,663
-911.270935,95.923256,167.865707,446.666656,-417.777771,10.000000,36.331818,8.610431,-4.970249,664
-923.261353,107.913666,191.846512,444.444458,-420.000000,20.000000,36.961849,7.910396,-3.430171,665
-911.270935,167.865707,167.865707,446.666656,-417.777771,15.000000,35.281765,6.860343,-2.590130,666
-947.242188,143.884888,167.865707,442.222229,-422.222229,20.000000,33.251663,5.950297,-2.240112,667
-959.232544,71.942444,167.865707,444.444458,-417.777771,15.000000,31.291565,4.340217,-1.260063,668
-947.242188,95.923256,167.865707,442.222229,-422.222229,20.000000,28.981449,2.870144,-0.980049,669
-983.213379,47.961628,119.904068,446.666656,-417.777771,17.500000,29.331467,1.960098,-1.260063,670
-971.222961,83.932854,143.884888,444.444458,-413.333344,17.500000,30.871544,1.050053,-3.360168,671
-959.232544,119.904068,143.884888,444.444458,-417.777771,20.000000,33.111656,-0.280014,-7.420371,672
-971.222961,83.932854,155.875290,440.000000,-420.000000,30.000000,35.211761,-0.840042,-11.410571,673
-983.213379,95.923256,143.884888,446.666656,-415.555542,25.000000,35.211761,-2.800140,-15.400770,674
-971.222961,71.942444,179.856110,442.222229,-415.555542,30.000000,33.531677,-4.550228,-17.360868,675
-959.232544,119.904068,143.884888,444.444458,-411.111115,27.500000,28.141407,-8.820441,-20.651033,676
-935.251770,71.942444,143.884888,442.222229,-417.777771,30.000000,21.631083,-14.280714,-22.331118,677
-815.347656,143.884888,167.865707,444.444458,-413.333344,27.500000,17.780890,-16.870844,-22.611132,678
-839.328491,83.932854,155.875290,446.666656,-413.333344,30.000000,19.040953,-18.060904,-23.871193,679
-815.347656,119.904068,119.904068,448.888885,-408.888885,30.000000,22.191111,-19.600981,-24.291214,680
-791.366882,35.971222,119.904068,446.666656,-413.333344,37.500000,27.931396,-20.021002,-24.641232,681
-743.405273,23.980814,71.942444,448.888885,-406.666656,32.500000,35.771790,-19.180960,-25.901295,682
-731.414856,59.952034,95.923256,444.444458,-408.888885,35.000000,41.722088,-18.550928,-27.651382,683
-719.424438,0.000000,143.884888,451.111115,-404.444458,35.000000,42.422123,-18.550928,-29.121456,684
-731.414856,95.923256,143.884888,444.444458,-408.888885,42.500000,40.812042,-19.810991,-31.011551,685
-743.405273,95.923256,71.942444,444.444458,-402.222229,42.500000,37.941898,-20.301016,-30.451523,686
-743.405273,83.932854,83.932854,446.666656,-402.222229,47.500000,53.412670,-20.161009,-29.751488,687
-743.405273,47.961628,119.904068,444.444458,-400.000000,47.500000,33.461674,-20.581030,-29.331467,688
-767.386047,71.942444,143.884888,446.666656,-400.000000,52.500000,27.301365,-22.611132,-30.941547,689
-863.309326,71.942444,143.884888,448.888885,-395.555542,50.000000,21.421072,-23.171160,-36.261814,690
-875.299744,71.942444,143.884888,453.333344,-400.000000,52.500000,17.010851,-20.441023,-44.592232,691
-959.232544,0.000000,167.865707,451.111115,-388.888885,50.000000,10.850543,-14.070704,-53.272663,692
-983.213379,119.904068,167.865707,448.888885,-393.333344,52.500000,3.640182,-7.560378,-60.623032,693
-1055.155884,71.942444,239.808136,453.333344,-391.111115,50.000000,-7.560378,-6.160308,-69.023453,694
-1043.165405,59.952034,203.836914,453.333344,-391.111115,57.500000,-14.770739,-8.260413,-72.663635,695
-959.232544,0.000000,119.904068,453.333344,-384.444458,55.000000,-7.840392,-8.330417,-75.533775,696
-1115.107910,-227.817734,107.913666,453.333344,-382.222229,55.000000,46.622330,-9.450473,-85.964302,697
1007.194214,-719.424438,-119.904068,460.000000,-371.111115,60.000000,101.575081,-8.400420,-70.703537,698
-287.769775,-275.779358,71.942444,455.555542,-375.555542,70.000000,252.292618,-22.961149,-113.545677,699
-1199.040771,167.865707,311.750580,457.777771,-364.444458,77.500000,275.253754,-36.751839,-115.645782,700
-1247.002319,47.961628,323.740997,455.555542,-362.222229,92.500000,236.121811,-51.732586,-96.184807,701
-1318.944824,95.923256,263.788971,455.555542,-355.555542,90.000000,169.688492,-50.822540,-71.193558,702
-1354.916016,131.894485,311.750580,455.555542,-362.222229,97.500000,97.514877,-32.971649,-40.182011,703
-1031.175049,23.980814,-71.942444,453.333344,-353.333344,100.000000,37.241863,-2.030102,-14.560728,704
-1043.165405,-11.990407,-143.884888,451.111115,-360.000000,102.500000,20.441023,17.500875,-3.850193,705
-959.232544,0.000000,-95.923256,453.333344,-355.555542,97.500000,31.221561,21.701086,9.870494,706
-827.338074,47.961628,-83.932854,448.888885,-357.777771,105.000000,24.851242,17.570879,8.050403,707
-935.251770,143.884888,0.000000,448.888885,-355.555542,105.000000,18.550928,4.620231,5.040252,708
-875.299744,35.971222,-35.971222,444.444458,-360.000000,105.000000,-2.590130,-3.150157,9.310466,709
-23.980814,-479.616272,-263.788971,451.111115,-355.555542,100.000000,-2.450123,-13.230661,3.500175,710
-731.414856,-23.980814,-71.942444,444.444458,-355.555542,105.000000,26.111305,-20.511026,-21.211061,711
-815.347656,-71.942444,-95.923256,448.888885,-355.555542,105.000000,19.040953,-21.421072,-19.320967,712
-959.232544,59.952034,-83.932854,448.888885,-351.111115,107.500000,6.230311,-22.681135,-17.290865,713
-959.232544,167.865707,-95.923256,448.888885,-351.111115,102.500000,1.750087,-21.631083,-17.990900,714
-1055.155884,155.875290,-131.894485,446.666656,-355.555542,110.000000,-18.200911,-16.730837,-11.060554,715
-911.270935,-23.980814,-143.884888,448.888885,-348.888885,107.500000,-24.081203,-11.900595,-7.070354,716
-935.251770,0.000000,-179.856110,444.444458,-348.888885,107.500000,-11.760588,-4.970249,-8.190410,717
-959.232544,-23.980814,-71.942444,448.888885,-348.888885,105.000000,6.580329,4.830242,-6.440322,718
-1031.175049,-47.961628,-95.923256,442.222229,-351.111115,110.000000,15.540777,19.250963,-2.870144,719
-1079.136597,0.000000,-23.980814,444.444458,-344.444458,107.500000,19.670984,32.061604,-2.870144,720
-1091.127075,59.952034,71.942444,446.666656,-348.888885,110.000000,21.911097,40.392021,-5.250263,721
-1151.079102,23.980814,23.980814,446.666656,-348.888885,107.500000,9.030452,39.131958,-2.590130,722
-1091.127075,83.932854,23.980814,444.444458,-351.111115,110.000000,14.070704,30.381519,13.160658,723
-1031.175049,47.961628,47.961628,442.222229,-348.888885,107.500000,14.770739,28.211411,27.021351,724
-1007.194214,23.980814,23.980814,440.000000,-357.777771,112.500000,14.490725,29.751488,33.321667,725
-1031.175049,47.961628,71.942444,440.000000,-351.111115,107.500000,15.610781,31.291565,47.182358,726
-995.203796,47.961628,47.961628,433.333344,-362.222229,110.000000,17.290865,31.711586,58.522926,727
-959.232544,0.000000,0.000000,435.555542,-353.333344,105.000000,16.590830,32.061604,67.623383,728
-971.222961,35.971222,11.990407,433.333344,-362.222229,110.000000,10.710536,28.631432,71.193558,729
-1031.175049,-47.961628,-71.942444,433.333344,-364.444458,107.500000,0.000000,23.591179,70.563530,730
-1031.175049,-23.980814,-23.980814,426.666656,-368.888885,107.500000,-5.320266,19.110956,65.663284,731
-1151.079102,0.000000,0.000000,428.888885,-366.666656,102.500000,-8.050403,11.900595,52.642632,732
-1115.107910,-11.990407,-11.990407,422.222229,-371.111115,107.500000,-2.730137,7.140357,39.691986,733
-1127.098267,-95.923256,-71.942444,424.444458,-366.666656,105.000000,7.630382,5.530277,32.691635,734
-1091.127075,-11.990407,-71.942444,417.777771,-375.555542,115.000000,18.830942,10.780540,24.991249,735
-551.558716,215.827332,-695.443604,422.222229,-368.888885,110.000000,36.891846,17.640882,17.080854,736
-887.290100,-47.961628,-287.769775,415.555542,-366.666656,117.500000,60.063004,27.091354,8.680434,737
-1127.098267,-71.942444,-191.846512,417.777771,-368.888885,112.500000,70.843544,33.531677,4.830242,738
-1127.098267,-23.980814,-179.856110,413.333344,-371.111115,120.000000,55.582779,36.051804,-16.520826,739
-959.232544,119.904068,-239.808136,415.555542,-371.111115,112.500000,75.953796,35.281765,-22.961149,740
-1103.117432,47.961628,-155.875290,413.333344,-375.555542,122.500000,83.584183,33.881695,-14.630732,741
-959.232544,95.923256,-143.884888,413.333344,-366.666656,120.000000,74.553726,30.871544,-16.870844,742
-1163.069458,47.961628,-71.942444,413.333344,-375.555542,122.500000,78.403923,24.991249,-9.100455,743
-1342.925659,95.923256,47.961628,411.111115,-368.888885,120.000000,52.642632,15.050753,1.470073,744
-1282.973511,143.884888,83.932854,408.888885,-373.333344,127.500000,36.331818,3.570179,16.030802,745
-1151.079102,143.884888,47.961628,404.444458,-371.111115,127.500000,21.001051,-4.970249,27.231361,746
-1163.069458,143.884888,11.990407,406.666656,-368.888885,127.500000,8.540427,-9.940497,32.201611,747
-1151.079102,0.000000,-47.961628,404.444458,-364.444458,125.000000,-1.120056,-11.130557,35.001751,748
-1139.088623,107.913666,-35.971222,400.000000,-375.555542,130.000000,-5.600280,-9.940497,33.321667,749
-1127.098267,119.904068,-95.923256,400.000000,-375.555542,125.000000,-4.550228,-5.740287,32.971649,750
-1115.107910,83.932854,-71.942444,397.777771,-380.000000,132.500000,-4.690235,0.280014,31.011551,751
-1079.136597,143.884888,-71.942444,397.777771,-371.111115,125.000000,-1.260063,3.500175,29.331467,752
-1091.127075,119.904068,-95.923256,397.777771,-377.777771,132.500000,2.800140,6.090304,24.011200,753
-1079.136597,47.961628,-167.865707,395.555542,-373.333344,120.000000,3.780189,9.100455,19.600981,754
-1079.136597,47.961628,-179.856110,395.555542,-377.777771,127.500000,8.610431,13.020651,16.310816,755
-1151.079102,0.000000,-239.808136,391.111115,-375.555542,125.000000,12.460623,16.590830,15.610781,756
-1091.127075,11.990407,-203.836914,388.888885,-380.000000,127.500000,19.040953,18.830942,16.940847,757
-1175.059937,-47.961628,-239.808136,388.888885,-377.777771,125.000000,22.611132,19.460974,19.040953,758
-1091.127075,83.932854,-167.865707,386.666656,-377.777771,130.000000,20.301016,15.330767,1.750087,759
-1031.175049,47.961628,-71.942444,391.111115,-380.000000,125.000000,27.441372,9.520476,-1.120056,760
-1067.146240,83.932854,-59.952034,388.888885,-382.222229,135.000000,20.441023,6.160308,0.770038,761
-1007.194214,71.942444,-119.904068,388.888885,-377.777771,125.000000,15.190760,-3.430171,1.750087,762
-1007.194214,71.942444,-131.894485,384.444458,-375.555542,130.000000,9.170459,-9.800490,2.520126,763
-1055.155884,47.961628,-167.865707,382.222229,-377.777771,127.500000,10.220511,-10.780540,1.820091,764
-1031.175049,23.980814,-191.846512,384.444458,-382.222229,130.000000,14.000700,-6.930346,1.610080,765
-1055.155884,0.000000,-215.827332,388.888885,-377.777771,132.500000,22.821142,-1.120056,0.630032,766
-1103.117432,35.971222,-167.865707,377.777771,-377.777771,137.500000,28.141407,2.520126,-0.210010,767
-1175.059937,23.980814,-191.846512,384.444458,-380.000000,135.000000,27.721386,2.940147,-0.630032,768
-1175.059937,35.971222,-119.904068,380.000000,-380.000000,135.000000,25.831291,3.500175,-1.680084,769
-1294.963989,47.961628,-119.904068,382.222229,-373.333344,132.500000,20.301016,2.590130,-4.480224,770
-1270.983154,47.961628,-59.952034,380.000000,-377.777771,132.500000,12.740637,2.590130,-7.000350,771
-1318.944824,23.980814,-23.980814,377.777771,-373.333344,137.500000,6.230311,3.080154,-10.850543,772
-1342.925659,59.952034,-47.961628,377.777771,-382.222229,137.500000,-0.350018,4.200210,-16.030802,773
-1318.944824,119.904068,-71.942444,382.222229,-373.333344,130.000000,-2.380119,5.390270,-19.740988,774
-1294.963989,107.913666,-119.904068,377.777771,-380.000000,137.500000,-6.720336,6.300315,-24.361217,775
-1223.021484,95.923256,-119.904068,382.222229,-371.111115,130.000000,-10.290515,7.910396,-25.901295,776
-1175.059937,59.952034,-143.884888,377.777771,-377.777771,135.000000,-12.530626,8.330417,-24.431221,777
-1103.117432,71.942444,-191.846512,384.444458,-371.111115,127.500000,-12.530626,8.260413,-21.561079,778
-1031.175049,83.932854,-191.846512,380.000000,-375.555542,135.000000,-9.870494,7.700385,-19.180960,779
-959.232544,95.923256,-239.808136,380.000000,-375.555542,127.500000,-9.310466,6.790339,-17.220861,780
-947.242188,47.961628,-227.817734,373.333344,-373.333344,132.500000,-9.030452,5.530277,-15.820791,781
-935.251770,23.980814,-215.827332,382.222229,-368.888885,125.000000,-7.770389,3.710186,-15.400770,782
-947.242188,23.980814,-191.846512,382.222229,-373.333344,130.000000,-7.420371,3.290164,-16.800840,783
-959.232544,0.000000,-215.827332,386.666656,-364.444458,122.500000,-6.720336,2.870144,-17.080854,784
-947.242188,23.980814,-167.865707,380.000000,-375.555542,132.500000,-6.020301,1.470073,-16.940847,785
-1007.194214,47.961628,-71.942444,386.666656,-364.444458,122.500000,-5.040252,1.820091,-16.380819,786
-983.213379,23.980814,-95.923256,377.777771,-375.555542,127.500000,-2.800140,4.340217,-15.470774,787
-983.213379,95.923256,-143.884888,380.000000,-366.666656,125.000000,-0.910046,6.790339,-13.720686,788
899.280518,-59.952034,215.827332,382.222229,-368.888885,130.000000,14.140707,8.960448,-18.200911,789
-1294.963989,-143.884888,-239.808136,380.000000,-366.666656,132.500000,65.383270,11.060554,-22.611132,790
-1163.069458,23.980814,-179.856110,382.222229,-366.666656,132.500000,22.611132,10.010501,-26.391319,791
-1079.136597,-23.980814,-191.846512,386.666656,-364.444458,127.500000,2.100105,13.440672,-21.421072,792
-1043.165405,95.923256,-191.846512,380.000000,-368.888885,132.500000,-1.050053,17.360868,-26.041302,793
-1007.194214,47.961628,-215.827332,384.444458,-362.222229,127.500000,5.670284,9.590480,-23.731186,794
-983.213379,83.932854,-167.865707,382.222229,-368.888885,132.500000,12.950647,-0.210010,-14.280714,795
-1055.155884,47.961628,-143.884888,382.222229,-366.666656,125.000000,16.800840,-2.870144,-7.280364,796
-1043.165405,23.980814,-167.865707,384.444458,-364.444458,130.000000,17.080854,1.540077,-4.340217,797
-1031.175049,-23.980814,-167.865707,382.222229,-362.222229,127.500000,15.820791,4.340217,-3.080154,798
-1007.194214,0.000000,-167.865707,382.222229,-371.111115,132.500000,14.420721,8.470424,-2.800140,799
-1103.117432,47.961628,-119.904068,384.444458,-364.444458,130.000000,13.020651,10.990550,-2.590130,800
-1019.184631,35.971222,-155.875290,380.000000,-366.666656,132.500000,12.250612,12.390619,-2.380119,801
-1151.079102,47.961628,95.923256,384.444458,-364.444458,130.000000,6.300315,11.270564,1.120056,802
-1007.194214,-11.990407,-143.884888,382.222229,-371.111115,135.000000,-12.180609,5.110256,10.010501,803
-1079.136597,-23.980814,-191.846512,384.444458,-364.444458,127.500000,-7.420371,2.800140,7.560378,804
-1031.175049,11.990407,-167.865707,380.000000,-364.444458,135.000000,-9.730487,2.170109,8.610431,805
-1103.117432,23.980814,-143.884888,380.000000,-364.444458,135.000000,-12.250612,5.460273,8.960448,806
-1031.175049,0.000000,-191.846512,380.000000,-368.888885,130.000000,-25.481274,7.770389,10.430522,807
-1007.194214,23.980814,-167.865707,384.444458,-366.666656,125.000000,-7.420371,9.240462,7.140357,808
-1007.194214,-11.990407,-179.856110,380.000000,-371.111115,132.500000,-3.710186,10.640532,6.440322,809
-1031.175049,0.000000,-71.942444,382.222229,-366.666656,127.500000,-6.230311,8.610431,5.110256,810
-1031.175049,0.000000,-131.894485,382.222229,-371.111115,127.500000,-7.630382,6.650332,4.480224,811
-1031.175049,0.000000,-143.884888,382.222229,-364.444458,127.500000,-10.220511,0.770038,1.820091,812
-1019.184631,35.971222,-167.865707,382.222229,-366.666656,132.500000,-14.210711,-4.550228,-1.050053,813
-1079.136597,23.980814,-191.846512,386.666656,-366.666656,127.500000,-17.850893,-6.440322,-2.520126,814
-1067.146240,59.952034,-167.865707,380.000000,-368.888885,127.500000,-21.701086,-8.260413,-3.220161,815
-1007.194214,47.961628,-167.865707,384.444458,-362.222229,122.500000,-25.761288,-10.570529,-3.920196,816
-995.203796,83.932854,-167.865707,384.444458,-373.333344,127.500000,-30.871544,-12.880644,-6.020301,817
-959.232544,47.961628,-167.865707,384.444458,-364.444458,125.000000,-36.401821,-14.000700,-7.490375,818
-1019.184631,11.990407,-143.884888,386.666656,-368.888885,125.000000,-39.972000,-14.280714,-9.380469,819
-1055.155884,0.000000,-143.884888,386.666656,-362.222229,122.500000,-40.742039,-14.210711,-9.590480,820
-1031.175049,35.971222,-131.894485,386.666656,-366.666656,125.000000,-40.462025,-11.620582,-9.170459,821
-1007.194214,23.980814,-143.884888,388.888885,-362.222229,117.500000,-39.131958,-7.980399,-8.890445,822
-1007.194214,0.000000,-155.875290,391.111115,-366.666656,120.000000,-38.641933,-6.160308,-7.420371,823
-1007.194214,47.961628,-47.961628,391.111115,-366.666656,117.500000,-37.311867,-1.120056,-5.110256,824
-1019.184631,0.000000,-59.952034,386.666656,-368.888885,117.500000,-34.651733,2.100105,-5.180259,825
-1079.136597,0.000000,-71.942444,391.111115,-362.222229,112.500000,-30.941547,3.920196,-3.010150,826
-1067.146240,11.990407,-59.952034,388.888885,-366.666656,115.000000,-27.441372,6.020301,-0.910046,827
-1055.155884,-47.961628,-23.980814,391.111115,-362.222229,115.000000,-20.511026,7.420371,1.050053,828
-1031.175049,11.990407,-11.990407,393.333344,-371.111115,112.500000,-13.440672,6.720336,1.120056,829
-1031.175049,-23.980814,-23.980814,391.111115,-366.666656,112.500000,-6.720336,4.760238,0.140007,830
-1031.175049,11.990407,-11.990407,388.888885,-364.444458,110.000000,-1.540077,3.640182,0.210010,831
-1031.175049,23.980814,-23.980814,393.333344,-357.777771,110.000000,4.550228,5.040252,0.560028,832
-1043.165405,47.961628,-47.961628,386.666656,-371.111115,117.500000,9.310466,6.510325,-0.210010,833
-1031.175049,23.980814,-71.942444,391.111115,-364.444458,115.000000,12.460623,8.400420,-1.470073,834
-1019.184631,11.990407,-47.961628,388.888885,-366.666656,117.500000,13.790689,9.380469,-5.600280,835
-1055.155884,-23.980814,71.942444,391.111115,-362.222229,112.500000,9.800490,12.390619,-10.360518,836
-1007.194214,0.000000,-11.990407,388.888885,-368.888885,115.000000,-6.580329,16.450823,-14.210711,837
-1103.117432,-23.980814,119.904068,391.111115,-371.111115,112.500000,-0.350018,10.220511,-10.570529,838
-1019.184631,-11.990407,-59.952034,388.888885,-364.444458,117.500000,-3.500175,6.160308,-7.770389,839
-1055.155884,-23.980814,-119.904068,391.111115,-360.000000,112.500000,0.280014,2.100105,-6.650332,840
-1019.184631,0.000000,-131.894485,388.888885,-366.666656,117.500000,-5.110256,-0.630032,-4.200210,841
-1127.098267,0.000000,119.904068,393.333344,-362.222229,112.500000,13.090654,-5.880294,0.070004,842
-1055.155884,11.990407,11.990407,391.111115,-366.666656,115.000000,-16.450823,-7.770389,-1.330067,843
-983.213379,23.980814,-143.884888,393.333344,-355.555542,110.000000,-9.450473,-12.320616,1.890095,844
-1007.194214,59.952034,-119.904068,388.888885,-362.222229,115.000000,16.450823,-16.170809,1.540077,845
-1103.117432,23.980814,-119.904068,391.111115,-360.000000,112.500000,19.530977,-17.780890,4.970249,846
-1067.146240,23.980814,-131.894485,386.666656,-364.444458,117.500000,22.681135,-17.640882,7.840392,847
-1031.175049,-47.961628,-143.884888,391.111115,-362.222229,117.500000,22.121107,-16.590830,9.310466,848
-1043.165405,-35.971222,-95.923256,391.111115,-364.444458,122.500000,10.850543,-9.730487,3.010150,849
-959.232544,-23.980814,0.000000,391.111115,-362.222229,115.000000,7.350368,-5.110256,-1.470073,850
-971.222961,-23.980814,-59.952034,391.111115,-364.444458,122.500000,5.670284,-5.460273,-6.510325,851
-1175.059937,143.884888,-191.846512,391.111115,-360.000000,120.000000,-1.820091,-1.890095,-11.970598,852
-1055.155884,47.961628,-119.904068,388.888885,-364.444458,120.000000,0.490025,-3.640182,-4.830242,853
-1007.194214,95.923256,-191.846512,391.111115,-362.222229,117.500000,9.380469,-5.740287,-1.890095,854
-1019.184631,59.952034,-167.865707,388.888885,-362.222229,122.500000,12.810640,-7.630382,2.730137,855
-575.539551,839.328491,575.539551,391.111115,-364.444458,117.500000,15.820791,-7.350368,4.410221,856
-1067.146240,275.779358,23.980814,391.111115,-364.444458,125.000000,0.630032,10.360518,5.530277,857
-1007.194214,-119.904068,191.846512,388.888885,-364.444458,117.500000,6.300315,-0.070004,5.810291,858
-995.203796,-143.884888,47.961628,388.888885,-366.666656,125.000000,9.660483,-25.971298,0.980049,859
-983.213379,23.980814,-167.865707,391.111115,-362.222229,120.000000,13.160658,-30.381519,5.180259,860
-1007.194214,0.000000,-155.875290,386.666656,-368.888885,127.500000,20.791040,-28.771439,15.890795,861
-1031.175049,-47.961628,-47.961628,388.888885,-360.000000,122.500000,10.290515,-17.430872,9.170459,862
-1067.146240,-11.990407,-59.952034,388.888885,-366.666656,125.000000,1.750087,-15.050753,3.920196,863
-1007.194214,-47.961628,-143.884888,388.888885,-362.222229,127.500000,1.330067,-15.260763,4.620231,864
-1007.194214,-35.971222,-95.923256,388.888885,-360.000000,127.500000,3.430171,-12.740637,3.290164,865
-983.213379,0.000000,-71.942444,391.111115,-360.000000,127.500000,6.230311,-13.510675,4.270214,866
-995.203796,-11.990407,-131.894485,388.888885,-366.666656,125.000000,8.400420,-16.240812,7.560378,867
-1103.117432,23.980814,-191.846512,386.666656,-357.777771,122.500000,9.310466,-17.080854,9.800490,868
-1270.983154,179.856110,-191.846512,386.666656,-366.666656,130.000000,1.260063,-5.180259,9.660483,869
-1079.136597,47.961628,23.980814,388.888885,-360.000000,127.500000,-11.410571,14.420721,5.180259,870
-1067.146240,11.990407,-71.942444,384.444458,-366.666656,122.500000,-4.900245,3.150157,6.370318,871
-1031.175049,23.980814,-95.923256,384.444458,-362.222229,125.000000,-0.560028,1.610080,7.770389,872
-1043.165405,23.980814,-23.980814,386.666656,-362.222229,130.000000,1.750087,0.840042,8.750438,873
-1055.155884,0.000000,-119.904068,386.666656,-362.222229,125.000000,8.750438,-4.690235,9.800490,874
-1031.175049,35.971222,-95.923256,384.444458,-364.444458,130.000000,12.740637,-7.420371,9.310466,875
-983.213379,0.000000,-95.923256,386.666656,-362.222229,125.000000,14.420721,-5.880294,7.700385,876
-1007.194214,0.000000,-71.942444,382.222229,-364.444458,130.000000,16.590830,-5.600280,6.160308,877
-1007.194214,0.000000,-143.884888,388.888885,-364.444458,122.500000,17.500875,-5.950297,5.600280,878
-1031.175049,0.000000,-155.875290,382.222229,-366.666656,135.000000,17.500875,-7.700385,5.460273,879
-1007.194214,0.000000,-191.846512,384.444458,-364.444458,132.500000,14.350718,-6.510325,4.900245,880
-1055.155884,47.961628,-167.865707,380.000000,-362.222229,130.000000,9.660483,-3.990200,3.430171,881
-1007.194214,23.980814,-191.846512,382.222229,-362.222229,132.500000,5.110256,0.210010,2.520126,882
-1079.136597,23.980814,-203.836914,380.000000,-368.888885,130.000000,-1.610080,7.700385,2.100105,883
-1031.175049,0.000000,-143.884888,382.222229,-364.444458,127.500000,-6.020301,10.430522,1.470073,884
-1043.165405,0.000000,-143.884888,382.222229,-364.444458,135.000000,-6.860343,9.870494,1.540077,885
-1055.155884,0.000000,-143.884888,382.222229,-364.444458,130.000000,-8.820441,10.290515,1.540077,886
-1031.175049,11.990407,-95.923256,380.000000,-368.888885,127.500000,-9.940497,9.380469,1.960098,887
-1055.155884,-23.980814,-95.923256,386.666656,-366.666656,125.000000,-8.400420,4.550228,3.290164,888
-1007.194214,11.990407,-143.884888,382.222229,-366.666656,132.500000,-8.260413,5.390270,4.200210,889
-1055.155884,23.980814,-143.884888,380.000000,-366.666656,130.000000,-10.710536,7.280364,3.640182,890
-1019.184631,11.990407,-107.913666,382.222229,-368.888885,127.500000,-11.480575,8.610431,3.850193,891
-1270.983154,191.846512,191.846512,384.444458,-360.000000,125.000000,-0.980049,2.590130,1.260063,892
-1103.117432,47.961628,-11.990407,382.222229,-371.111115,127.500000,6.510325,-8.330417,-0.070004,893
-983.213379,0.000000,-95.923256,384.444458,-364.444458,122.500000,4.900245,-10.500525,-1.820091,894
-1007.194214,23.980814,-95.923256,384.444458,-371.111115,127.500000,2.870144,-9.170459,-4.830242,895
-1031.175049,71.942444,-95.923256,384.444458,-362.222229,127.500000,1.190060,-8.960448,-4.480224,896
-1007.194214,23.980814,-143.884888,384.444458,-366.666656,132.500000,-0.210010,-8.120406,-9.380469,897
-1007.194214,119.904068,-167.865707,382.222229,-364.444458,130.000000,-2.520126,-6.720336,-8.680434,898
-1031.175049,35.971222,-203.836914,384.444458,-368.888885,132.500000,-0.490025,-0.210010,-3.780189,899
-1007.194214,95.923256,-215.827332,384.444458,-357.777771,125.000000,-1.050053,11.060554,0.980049,900
-1007.194214,0.000000,-107.913666,384.444458,-368.888885,132.500000,-4.340217,14.000700,3.430171,901
-1103.117432,47.961628,-191.846512,382.222229,-364.444458,127.500000,-2.240112,7.630382,2.660133,902
-1079.136597,71.942444,-143.884888,380.000000,-368.888885,132.500000,-8.330417,11.130557,-1.050053,903
-1151.079102,0.000000,-191.846512,388.888885,-362.222229,125.000000,-10.150508,12.600630,-2.170109,904
-1067.146240,59.952034,-167.865707,386.666656,-368.888885,125.000000,-13.230661,17.710886,-2.660133,905
-1055.155884,191.846512,-143.884888,384.444458,-364.444458,125.000000,-14.140707,19.320967,-2.310116,906
-1019.184631,59.952034,-119.904068,386.666656,-362.222229,122.500000,3.010150,10.570529,6.090304,907
-1007.194214,0.000000,-71.942444,384.444458,-362.222229,122.500000,-0.140007,9.310466,3.360168,908
-1007.194214,11.990407,-47.961628,382.222229,-373.333344,125.000000,-4.130207,6.930346,2.660133,909
-1103.117432,0.000000,-71.942444,386.666656,-364.444458,122.500000,-6.020301,5.320266,2.100105,910
-1055.155884,0.000000,-83.932854,382.222229,-371.111115,127.500000,-7.840392,6.020301,1.960098,911
-1031.175049,47.961628,-47.961628,386.666656,-362.222229,122.500000,-6.090304,3.290164,3.920196,912
-1007.194214,23.980814,-71.942444,382.222229,-371.111115,125.000000,-2.940147,-0.140007,5.110256,913
-1007.194214,23.980814,-71.942444,386.666656,-366.666656,122.500000,-0.840042,-1.470073,5.320266,914
-1031.175049,23.980814,-71.942444,386.666656,-368.888885,125.000000,3.220161,-4.760238,5.670284,915
-1007.194214,71.942444,-71.942444,386.666656,-364.444458,122.500000,6.300315,-6.720336,5.670284,916
-1007.194214,71.942444,-119.904068,384.444458,-371.111115,130.000000,6.860343,-5.530277,4.760238,917
-1031.175049,0.000000,-191.846512,386.666656,-364.444458,122.500000,7.980399,-3.500175,3.010150,918
-1007.194214,35.971222,-167.865707,382.222229,-373.333344,127.500000,6.860343,-2.030102,1.610080,919
-983.213379,23.980814,-167.865707,384.444458,-364.444458,122.500000,5.670284,-1.190060,-0.770038,920
-995.203796,35.971222,-131.894485,380.000000,-373.333344,127.500000,2.660133,0.770038,-3.710186,921
-1055.155884,23.980814,-119.904068,382.222229,-366.666656,122.500000,1.820091,1.540077,-4.690235,922
-1019.184631,47.961628,-167.865707,384.444458,-366.666656,127.500000,0.420021,2.730137,-5.250263,923
-1079.136597,71.942444,-119.904068,380.000000,-366.666656,125.000000,-1.750087,4.620231,-4.900245,924
-1043.165405,47.961628,-119.904068,382.222229,-371.111115,127.500000,-3.990200,6.720336,-5.810291,925
-1055.155884,47.961628,-143.884888,384.444458,-364.444458,122.500000,-5.320266,7.350368,-7.140357,926
-1007.194214,11.990407,-95.923256,382.222229,-373.333344,125.000000,-5.880294,7.630382,-7.350368,927
-1079.136597,-23.980814,-167.865707,386.666656,-366.666656,122.500000,-4.060203,7.420371,-7.210361,928
-1031.175049,0.000000,-95.923256,384.444458,-371.111115,127.500000,-3.570179,7.070354,-6.510325,929
-1007.194214,0.000000,-119.904068,384.444458,-366.666656,125.000000,-2.590130,7.210361,-6.370318,930
-1055.155884,0.000000,-107.913666,384.444458,-364.444458,130.000000,-1.890095,8.190410,-5.250263,931
-1127.098267,47.961628,-71.942444,386.666656,-366.666656,122.500000,-0.280014,8.960448,-3.150157,932
-1019.184631,23.980814,-83.932854,382.222229,-368.888885,127.500000,2.520126,7.700385,-2.380119,933
-1055.155884,23.980814,-95.923256,382.222229,-364.444458,122.500000,4.270214,6.720336,-1.890095,934
-1031.175049,11.990407,-119.904068,384.444458,-373.333344,127.500000,7.420371,3.780189,-1.610080,935
-1007.194214,0.000000,-143.884888,386.666656,-364.444458,125.000000,9.310466,1.120056,-0.700035,936
-983.213379,11.990407,-107.913666,384.444458,-368.888885,127.500000,9.030452,-0.280014,-0.630032,937
-1007.194214,23.980814,-119.904068,386.666656,-362.222229,122.500000,9.310466,-1.540077,-0.910046,938
-1294.963989,107.913666,263.788971,382.222229,-373.333344,127.500000,9.030452,-2.450123,-1.470073,939
-983.213379,0.000000,-119.904068,382.222229,-368.888885,125.000000,-35.281765,-2.450123,3.640182,940
-1007.194214,35.971222,-167.865707,384.444458,-366.666656,127.500000,-27.371368,-15.960798,3.360168,941
-959.232544,-23.980814,-239.808136,386.666656,-362.222229,120.000000,-18.130907,-15.750788,1.470073,942
-1019.184631,35.971222,-179.856110,384.444458,-375.555542,125.000000,-11.550578,-13.580679,0.490025,943
-1031.175049,0.000000,-167.865707,386.666656,-364.444458,122.500000,-9.940497,-11.760588,-1.190060,944
-1007.194214,11.990407,-191.846512,382.222229,-368.888885,127.500000,-5.320266,-11.830591,-3.290164,945
-1055.155884,47.961628,-191.846512,388.888885,-364.444458,122.500000,-2.870144,-11.760588,-5.600280,946
-1055.155884,47.961628,-167.865707,384.444458,-371.111115,127.500000,-5.040252,-10.640532,-5.180259,947
-1067.146240,11.990407,-107.913666,384.444458,-364.444458,125.000000,-10.500525,-11.830591,-2.030102,948
-1031.175049,23.980814,-143.884888,384.444458,-364.444458,125.000000,-11.200561,-14.420721,-0.350018,949
-1019.184631,35.971222,-95.923256,386.666656,-357.777771,122.500000,-13.860693,-16.800840,-0.280014,950
-1079.136597,0.000000,-95.923256,384.444458,-368.888885,127.500000,-13.720686,-19.530977,3.430171,951
-1055.155884,23.980814,-83.932854,386.666656,-362.222229,122.500000,-13.790689,-18.620932,4.690235,952
-983.213379,95.923256,-23.980814,382.222229,-368.888885,125.000000,-14.980749,-17.220861,5.110256,953
-1019.184631,23.980814,-35.971222,384.444458,-362.222229,120.000000,-20.231012,-15.540777,9.100455,954
-1007.194214,-71.942444,-215.827332,388.888885,-366.666656,125.000000,-24.151207,-14.210711,10.500525,955
-995.203796,-35.971222,-191.846512,391.111115,-366.666656,120.000000,-11.900595,-7.980399,6.160308,956
-1031.175049,0.000000,-143.884888,388.888885,-366.666656,122.500000,-2.310116,3.150157,1.330067,957
-1031.175049,11.990407,-95.923256,388.888885,-360.000000,122.500000,3.220161,8.540427,-0.140007,958
-1007.194214,0.000000,-47.961628,384.444458,-371.111115,125.000000,3.290164,8.680434,-0.350018,959
-1019.184631,11.990407,-107.913666,386.666656,-364.444458,122.500000,3.710186,7.700385,0.140007,960
-1055.155884,0.000000,-143.884888,382.222229,-368.888885,125.000000,4.130207,6.230311,1.050053,961
-1043.165405,11.990407,-95.923256,386.666656,-366.666656,122.500000,2.870144,5.950297,1.680084,962
-983.213379,0.000000,-95.923256,386.666656,-371.111115,122.500000,1.260063,0.490025,0.210010,963
-1031.175049,35.971222,-107.913666,386.666656,-362.222229,122.500000,-1.330067,-5.460273,-3.990200,964
-983.213379,0.000000,-95.923256,386.666656,-366.666656,122.500000,-6.090304,-11.900595,-5.460273,965
-995.203796,95.923256,-95.923256,384.444458,-362.222229,117.500000,-8.260413,-13.720686,-10.150508,966
-1127.098267,0.000000,-167.865707,386.666656,-368.888885,125.000000,-15.120756,-26.531326,-23.311165,967
-1103.117432,-11.990407,-155.875290,388.888885,-362.222229,122.500000,-14.070704,-19.740988,-13.510675,968
-959.232544,95.923256,-167.865707,386.666656,-364.444458,127.500000,-8.190410,-4.340217,6.020301,969
-995.203796,47.961628,-47.961628,391.111115,-360.000000,120.000000,-11.550578,-10.710536,3.290164,970
-959.232544,47.961628,-23.980814,386.666656,-364.444458,122.500000,-10.570529,-11.550578,1.820091,971
-995.203796,35.971222,-71.942444,388.888885,-360.000000,125.000000,-3.920196,-4.830242,0.420021,972
-1007.194214,-23.980814,-143.884888,388.888885,-364.444458,122.500000,-4.130207,-3.920196,3.710186,973
-1031.175049,23.980814,-107.913666,388.888885,-362.222229,122.500000,-5.250263,-3.220161,6.440322,974
-1031.175049,95.923256,47.961628,384.444458,-366.666656,125.000000,-3.220161,-1.120056,7.140357,975
-1055.155884,59.952034,-23.980814,386.666656,-362.222229,125.000000,1.260063,0.910046,3.710186,976
-1031.175049,23.980814,-143.884888,384.444458,-368.888885,127.500000,-0.070004,-1.540077,3.150157,977
-1007.194214,35.971222,-83.932854,391.111115,-360.000000,117.500000,0.000000,-0.490025,2.660133,978
-1007.194214,35.971222,-83.932854,388.888885,-368.888885,125.000000,-1.680084,-2.520126,2.380119,979
-1019.184631,0.000000,-119.904068,391.111115,-357.777771,120.000000,-2.660133,-4.690235,3.500175,980
-983.213379,23.980814,-119.904068,386.666656,-368.888885,125.000000,-3.780189,-5.390270,4.270214,981
-1019.184631,11.990407,-71.942444,386.666656,-362.222229,127.500000,-3.290164,-4.200210,5.600280,982
-1055.155884,0.000000,-23.980814,384.444458,-366.666656,125.000000,-0.980049,-2.660133,3.850193,983
-1043.165405,23.980814,-71.942444,391.111115,-364.444458,122.500000,-0.420021,-0.490025,2.660133,984
-1031.175049,0.000000,-95.923256,386.666656,-364.444458,125.000000,-0.980049,0.490025,1.330067,985
-1007.194214,23.980814,-71.942444,388.888885,-360.000000,125.000000,-3.360168,-0.770038,1.120056,986
-983.213379,23.980814,-119.904068,386.666656,-366.666656,122.500000,-4.550228,0.560028,0.350018,987
-1007.194214,0.000000,-95.923256,388.888885,-357.777771,120.000000,-2.730137,0.910046,-2.940147,988
-983.213379,71.942444,-143.884888,384.444458,-366.666656,125.000000,-2.940147,-0.210010,-4.410221,989
-995.203796,35.971222,-131.894485,384.444458,-364.444458,122.500000,-3.080154,-0.980049,-5.040252,990
-983.213379,35.971222,-95.923256,384.444458,-360.000000,125.000000,-3.290164,-1.190060,-4.690235,991
-1043.165405,-11.990407,-95.923256,391.111115,-364.444458,122.500000,-2.870144,-1.540077,-3.290164,992
-1031.175049,71.942444,0.000000,384.444458,-368.888885,122.500000,-2.520126,-1.120056,-3.290164,993
-1043.165405,35.971222,-83.932854,386.666656,-362.222229,120.000000,-1.540077,0.210010,-2.590130,994
-1055.155884,0.000000,-71.942444,386.666656,-362.222229,122.500000,3.500175,5.740287,-3.780189,995
-1043.165405,11.990407,-83.932854,393.333344,-362.222229,120.000000,2.380119,2.590130,-3.360168,996
-1055.155884,0.000000,-71.942444,386.666656,-366.666656,125.000000,-0.910046,1.050053,-2.100105,997
-1055.155884,0.000000,-83.932854,388.888885,-364.444458,125.000000,-1.190060,2.030102,-0.560028,998
-983.213379,23.980814,-95.923256,386.666656,-364.444458,125.000000,-1.050053,2.660133,0.630032,999
-995.203796,35.971222,-83.932854,388.888885,-362.222229,120.000000,-1.960098,2.800140,1.540077,1000
-959.232544,23.980814,-47.961628,384.444458,-368.888885,122.500000,-2.310116,2.170109,1.190060,1001
-983.213379,11.990407,-83.932854,388.888885,-360.000000,120.000000,-2.590130,0.980049,-0.280014,1002
-995.203796,35.971222,-83.932854,386.666656,-366.666656,127.500000,-2.310116,0.350018,-1.750087,1003
-1031.175049,23.980814,-71.942444,391.111115,-360.000000,115.000000,-2.310116,-0.280014,-1.400070,1004
-1031.175049,23.980814,-119.904068,386.666656,-366.666656,125.000000,-2.590130,-0.910046,-1.540077,1005
-1031.175049,47.961628,-119.904068,391.111115,-357.777771,120.000000,-3.500175,-2.030102,-0.420021,1006
-1031.175049,47.961628,-119.904068,386.666656,-364.444458,122.500000,-2.240112,-0.560028,0.140007,1007
-1019.184631,47.961628,-83.932854,384.444458,-360.000000,125.000000,-0.770038,0.490025,0.070004,1008
-1007.194214,23.980814,-119.904068,386.666656,-366.666656,125.000000,0.840042,0.210010,0.140007,1009
-1019.184631,35.971222,-95.923256,388.888885,-360.000000,120.000000,0.420021,0.840042,0.560028,1010
-983.213379,47.961628,-71.942444,384.444458,-366.666656,120.000000,-0.770038,0.700035,1.820091,1011
-1019.184631,23.980814,-83.932854,386.666656,-362.222229,122.500000,-1.470073,0.490025,0.770038,1012
-1055.155884,71.942444,-119.904068,388.888885,-366.666656,122.500000,-1.260063,1.330067,0.560028,1013
-1007.194214,47.961628,-119.904068,393.333344,-357.777771,122.500000,-1.470073,1.260063,0.560028,1014
-995.203796,47.961628,-95.923256,386.666656,-362.222229,125.000000,-1.470073,2.450123,-0.420021,1015
-995.203796,71.942444,-95.923256,388.888885,-362.222229,125.000000,-0.560028,2.800140,-0.560028,1016
-1031.175049,23.980814,-95.923256,386.666656,-364.444458,125.000000,4.200210,6.090304,-2.590130,1017
-1031.175049,23.980814,-95.923256,391.111115,-364.444458,120.000000,-1.050053,0.490025,-3.290164,1018
-1031.175049,95.923256,-119.904068,384.444458,-368.888885,127.500000,-0.560028,0.980049,-2.730137,1019
-1043.165405,47.961628,-95.923256,388.888885,-362.222229,122.500000,-0.910046,0.560028,-3.080154,1020
-983.213379,0.000000,-95.923256,386.666656,-368.888885,122.500000,0.210010,0.560028,-3.010150,1021
-1019.184631,35.971222,-107.913666,388.888885,-355.555542,120.000000,-0.420021,-0.980049,-1.960098,1022
-983.213379,0.000000,-119.904068,388.888885,-366.666656,125.000000,-0.630032,-2.100105,-1.260063,1023
-1007.194214,35.971222,-143.884888,388.888885,-362.222229,122.500000,0.280014,-2.450123,-1.680084,1024
-1031.175049,47.961628,-95.923256,391.111115,-366.666656,125.000000,-0.350018,-1.680084,-1.680084,1025
-1055.155884,11.990407,-107.913666,388.888885,-360.000000,120.000000,-0.140007,-0.070004,-2.730137,1026
-1031.175049,0.000000,-143.884888,386.666656,-364.444458,125.000000,-0.560028,0.280014,-2.800140,1027
-983.213379,83.932854,-59.952034,388.888885,-360.000000,122.500000,-0.350018,1.050053,-3.290164,1028
-1091.127075,11.990407,-119.904068,388.888885,-368.888885,127.500000,2.450123,3.150157,-2.940147,1029
-1031.175049,23.980814,-95.923256,388.888885,-360.000000,122.500000,-2.030102,0.420021,0.000000,1030
-1055.155884,23.980814,-71.942444,386.666656,-368.888885,125.000000,-2.450123,0.070004,1.470073,1031
-1007.194214,23.980814,-119.904068,386.666656,-366.666656,120.000000,-3.150157,0.070004,2.870144,1032
-1007.194214,35.971222,-83.932854,391.111115,-362.222229,122.500000,-3.360168,-0.560028,3.500175,1033
-1007.194214,71.942444,-95.923256,388.888885,-357.777771,120.000000,-4.270214,-1.400070,4.200210,1034
-1043.165405,23.980814,-83.932854,386.666656,-368.888885,122.500000,-3.150157,-1.050053,4.760238,1035
-1031.175049,47.961628,-95.923256,388.888885,-362.222229,125.000000,-2.450123,-0.630032,4.900245,1036
-1031.175049,35.971222,-59.952034,388.888885,-366.666656,125.000000,-1.050053,-1.260063,3.290164,1037
-1007.194214,47.961628,-71.942444,388.888885,-360.000000,120.000000,0.140007,-1.540077,2.940147,1038
-995.203796,35.971222,-71.942444,386.666656,-368.888885,122.500000,0.770038,-1.540077,1.890095,1039
-1031.175049,0.000000,-95.923256,388.888885,-364.444458,120.000000,1.470073,-1.820091,0.490025,1040
-1019.184631,-11.990407,-131.894485,388.888885,-362.222229,122.500000,1.680084,-2.520126,-0.560028,1041
-983.213379,47.961628,-119.904068,388.888885,-362.222229,122.500000,1.540077,-3.080154,-0.910046,1042
-983.213379,47.961628,-83.932854,386.666656,-371.111115,127.500000,0.980049,-3.430171,-0.770038,1043
-1031.175049,23.980814,-167.865707,386.666656,-355.555542,120.000000,-0.140007,-4.830242,-0.490025,1044
-983.213379,35.971222,-107.913666,386.666656,-366.666656,125.000000,-1.120056,-4.830242,-0.490025,1045
-1055.155884,47.961628,-95.923256,388.888885,-362.222229,122.500000,2.170109,-2.660133,-0.840042,1046
-1019.184631,47.961628,-131.894485,391.111115,-366.666656,122.500000,4.200210,-2.800140,-2.380119,1047
-1079.136597,-23.980814,-143.884888,388.888885,-362.222229,117.500000,2.800140,-3.430171,-1.400070,1048
-1055.155884,11.990407,-131.894485,384.444458,-364.444458,122.500000,-0.140007,-3.920196,-0.350018,1049
-1031.175049,23.980814,-119.904068,384.444458,-364.444458,125.000000,-1.260063,-3.010150,0.630032,1050
-1043.165405,23.980814,-95.923256,382.222229,-364.444458,125.000000,-2.170109,-1.750087,1.050053,1051
-1031.175049,23.980814,-95.923256,388.888885,-360.000000,122.500000,-1.470073,-0.630032,0.980049,1052
-995.203796,59.952034,-83.932854,384.444458,-368.888885,125.000000,-1.540077,0.490025,0.070004,1053
-1031.175049,0.000000,-71.942444,388.888885,-362.222229,122.500000,-2.170109,0.140007,-0.350018,1054
-1019.184631,0.000000,-83.932854,386.666656,-366.666656,127.500000,-3.850193,0.280014,0.070004,1055
-1031.175049,23.980814,-119.904068,388.888885,-362.222229,117.500000,-5.110256,0.280014,0.490025,1056
-1031.175049,11.990407,-95.923256,386.666656,-362.222229,125.000000,-7.770389,-0.280014,0.560028,1057
-983.213379,23.980814,-119.904068,386.666656,-364.444458,127.500000,-9.170459,-1.820091,1.120056,1058
-1007.194214,35.971222,-71.942444,391.111115,-366.666656,125.000000,-7.490375,-2.100105,0.770038,1059
-1079.136597,23.980814,-71.942444,388.888885,-357.777771,122.500000,-8.330417,-2.520126,1.330067,1060
-1031.175049,23.980814,-71.942444,384.444458,-366.666656,125.000000,-5.180259,0.840042,-0.350018,1061
-1055.155884,23.980814,-95.923256,386.666656,-362.222229,120.000000,-5.320266,0.000000,-0.980049,1062
-1043.165405,11.990407,-95.923256,388.888885,-371.111115,125.000000,-3.990200,-0.910046,-2.520126,1063
-1031.175049,0.000000,-119.904068,388.888885,-362.222229,122.500000,-1.680084,-1.470073,-3.290164,1064
-1031.175049,23.980814,-83.932854,384.444458,-368.888885,122.500000,1.330067,-1.120056,-3.780189,1065
-1055.155884,47.961628,0.000000,388.888885,-364.444458,122.500000,3.990200,-0.700035,-4.550228,1066
-1079.136597,23.980814,-59.952034,391.111115,-366.666656,120.000000,5.110256,-0.140007,-3.990200,1067
-1055.155884,23.980814,-143.884888,393.333344,-360.000000,120.000000,6.020301,-0.140007,-3.290164,1068
-1031.175049,11.990407,-71.942444,384.444458,-366.666656,125.000000,5.320266,-0.280014,-3.150157,1069
-1031.175049,71.942444,-47.961628,388.888885,-357.777771,120.000000,4.900245,0.280014,-3.010150,1070
-1043.165405,23.980814,-95.923256,384.444458,-371.111115,125.000000,7.140357,3.150157,-3.360168,1071
-1055.155884,0.000000,-119.904068,388.888885,-362.222229,122.500000,4.970249,0.560028,-3.430171,1072
-1067.146240,23.980814,-83.932854,388.888885,-364.444458,125.000000,4.830242,1.820091,-2.870144,1073
-1055.155884,47.961628,-167.865707,384.444458,-362.222229,122.500000,3.010150,1.540077,-1.750087,1074
-1055.155884,59.952034,-143.884888,386.666656,-362.222229,125.000000,1.400070,0.980049,-1.050053,1075
-1031.175049,47.961628,-119.904068,388.888885,-362.222229,117.500000,-0.980049,-0.070004,-1.400070,1076
-1031.175049,35.971222,-107.913666,386.666656,-364.444458,125.000000,-2.170109,-0.070004,-1.680084,1077
-1007.194214,23.980814,-95.923256,391.111115,-364.444458,120.000000,-2.590130,-0.420021,-1.890095,1078
-1019.184631,47.961628,-119.904068,388.888885,-366.666656,125.000000,-3.780189,0.350018,-1.330067,1079
-1055.155884,23.980814,-95.923256,388.888885,-360.000000,120.000000,-3.430171,0.210010,-1.470073,1080
-1043.165405,11.990407,-107.913666,386.666656,-371.111115,125.000000,-2.100105,0.840042,-1.680084,1081
-1007.194214,23.980814,-95.923256,384.444458,-357.777771,122.500000,-1.610080,1.120056,-0.980049,1082
-1031.175049,35.971222,-143.884888,386.666656,-364.444458,122.500000,-1.400070,0.840042,-0.490025,1083
-1031.175049,23.980814,-47.961628,386.666656,-360.000000,122.500000,0.070004,1.750087,0.630032,1084
-1031.175049,35.971222,-71.942444,386.666656,-364.444458,125.000000,1.120056,1.820091,1.330067,1085
-1031.175049,23.980814,-95.923256,388.888885,-355.555542,122.500000,1.540077,1.190060,2.030102,1086
-1055.155884,23.980814,-71.942444,386.666656,-366.666656,130.000000,2.940147,0.630032,1.750087,1087
-983.213379,0.000000,-119.904068,386.666656,-362.222229,120.000000,3.290164,0.140007,0.840042,1088
-1055.155884,35.971222,-95.923256,384.444458,-364.444458,127.500000,3.990200,0.070004,0.560028,1089
-1007.194214,23.980814,-143.884888,388.888885,-362.222229,125.000000,3.780189,-0.280014,0.560028,1090
-1019.184631,23.980814,-119.904068,388.888885,-366.666656,130.000000,2.590130,-0.140007,-0.070004,1091
-1007.194214,23.980814,-119.904068,384.444458,-362.222229,122.500000,2.240112,-0.070004,0.630032,1092
-1031.175049,59.952034,-119.904068,382.222229,-366.666656,125.000000,0.980049,-0.210010,-0.840042,1093
-1055.155884,23.980814,-95.923256,391.111115,-360.000000,122.500000,-0.350018,0.070004,-1.330067,1094
-1007.194214,11.990407,-71.942444,384.444458,-366.666656,130.000000,-1.470073,-0.840042,-0.840042,1095
-1031.175049,71.942444,-95.923256,386.666656,-355.555542,122.500000,-1.190060,-0.840042,-2.240112,1096
-1055.155884,35.971222,-95.923256,384.444458,-368.888885,125.000000,-1.750087,-1.610080,-2.240112,1097
-1055.155884,0.000000,-167.865707,386.666656,-357.777771,122.500000,-2.450123,-1.960098,-1.820091,1098
-1055.155884,11.990407,-119.904068,388.888885,-366.666656,125.000000,-2.520126,-1.680084,-1.680084,1099
-1007.194214,-47.961628,-119.904068,386.666656,-362.222229,125.000000,-3.150157,-2.170109,-1.190060,1100
-995.203796,0.000000,-83.932854,386.666656,-364.444458,127.500000,-3.920196,-2.030102,-0.700035,1101
-1103.117432,0.000000,-167.865707,386.666656,-362.222229,122.500000,-4.410221,-1.820091,-0.350018,1102
-1031.175049,11.990407,-119.904068,386.666656,-364.444458,125.000000,-4.340217,-1.890095,0.140007,1103
-1007.194214,0.000000,-95.923256,388.888885,-360.000000,122.500000,-3.780189,-1.610080,1.400070,1104
-995.203796,47.961628,-107.913666,386.666656,-368.888885,130.000000,-5.950297,-3.290164,2.030102,1105
-1007.194214,0.000000,-95.923256,388.888885,-364.444458,122.500000,-3.430171,-1.120056,1.680084,1106
-1007.194214,23.980814,-107.913666,386.666656,-366.666656,125.000000,-2.310116,-1.120056,0.910046,1107
-1007.194214,71.942444,-71.942444,386.666656,-362.222229,125.000000,-1.960098,-1.820091,1.680084,1108
-1007.194214,35.971222,-107.913666,388.888885,-360.000000,125.000000,-2.520126,-1.890095,1.050053,1109
-1007.194214,0.000000,-47.961628,386.666656,-362.222229,122.500000,-2.240112,-1.400070,1.330067,1110
-1019.184631,11.990407,-119.904068,384.444458,-364.444458,125.000000,-1.400070,-1.400070,0.420021,1111
-1007.194214,71.942444,-167.865707,391.111115,-362.222229,120.000000,-0.420021,-0.140007,-0.210010,1112
-1031.175049,35.971222,-119.904068,384.444458,-366.666656,122.500000,-0.490025,0.000000,-1.610080,1113
-983.213379,23.980814,-95.923256,386.666656,-357.777771,122.500000,-2.100105,-1.050053,-0.070004,1114
-1007.194214,11.990407,-83.932854,384.444458,-368.888885,127.500000,-1.470073,-0.770038,-0.840042,1115
-1079.136597,0.000000,-71.942444,384.444458,-364.444458,122.500000,-1.400070,-1.960098,0.140007,1116
-1043.165405,23.980814,-95.923256,386.666656,-364.444458,122.500000,-2.240112,-1.960098,1.260063,1117
-1031.175049,47.961628,-47.961628,388.888885,-360.000000,122.500000,-1.610080,-2.170109,0.630032,1118
-1007.194214,11.990407,-83.932854,386.666656,-366.666656,125.000000,-0.490025,-2.380119,0.910046,1119
-1055.155884,0.000000,-71.942444,386.666656,-360.000000,122.500000,0.700035,-1.400070,1.120056,1120
-1043.165405,35.971222,-71.942444,384.444458,-366.666656,130.000000,1.820091,-1.470073,1.260063,1121
-959.232544,143.884888,0.000000,393.333344,-360.000000,122.500000,3.080154,-1.750087,2.310116,1122
-1043.165405,107.913666,-107.913666,388.888885,-364.444458,125.000000,8.400420,1.540077,-0.280014,1123
-1007.194214,23.980814,-119.904068,384.444458,-362.222229,122.500000,8.610431,-0.210010,0.700035,1124
-1055.155884,23.980814,-143.884888,388.888885,-364.444458,127.500000,8.330417,0.700035,1.260063,1125
-1031.175049,0.000000,-167.865707,384.444458,-357.777771,122.500000,4.200210,-1.540077,3.290164,1126
-1007.194214,0.000000,-143.884888,384.444458,-368.888885,130.000000,0.070004,-2.730137,3.360168,1127
-1007.194214,47.961628,-119.904068,386.666656,-366.666656,122.500000,0.350018,-1.190060,2.310116,1128
-1019.184631,23.980814,-107.913666,386.666656,-373.333344,130.000000,2.030102,-0.980049,0.140007,1129
-1079.136597,23.980814,-119.904068,386.666656,-357.777771,122.500000,0.560028,-1.330067,-0.070004,1130
-1031.175049,11.990407,-143.884888,386.666656,-368.888885,132.500000,-1.890095,-1.260063,0.070004,1131
-1031.175049,23.980814,-71.942444,391.111115,-362.222229,127.500000,-2.940147,-1.680084,0.350018,1132
-1019.184631,11.990407,-47.961628,386.666656,-364.444458,125.000000,-4.060203,-2.310116,0.210010,1133
-1031.175049,71.942444,-119.904068,386.666656,-362.222229,125.000000,-3.780189,-2.310116,-0.980049,1134
-1007.194214,47.961628,-107.913666,386.666656,-366.666656,125.000000,-3.290164,-1.190060,-0.910046,1135
-1079.136597,47.961628,-71.942444,386.666656,-357.777771,122.500000,-3.780189,-1.750087,-0.210010,1136
-1031.175049,59.952034,-47.961628,384.444458,-368.888885,127.500000,-3.780189,-2.240112,1.050053,1137
-1079.136597,0.000000,-167.865707,388.888885,-362.222229,122.500000,-0.490025,-0.280014,-0.770038,1138
-1031.175049,11.990407,-95.923256,384.444458,-368.888885,127.500000,-0.630032,-1.750087,0.070004,1139
-1007.194214,23.980814,-47.961628,384.444458,-362.222229,120.000000,0.700035,-0.840042,-0.770038,1140
-995.203796,23.980814,-71.942444,382.222229,-366.666656,127.500000,2.100105,-1.260063,-1.260063,1141
-1079.136597,47.961628,-119.904068,386.666656,-362.222229,127.500000,2.100105,-1.190060,-1.190060,1142
-1043.165405,23.980814,-119.904068,384.444458,-368.888885,127.500000,1.960098,-1.050053,-0.980049,1143
-1007.194214,23.980814,-95.923256,388.888885,-360.000000,125.000000,1.330067,-0.350018,-0.700035,1144
-1043.165405,23.980814,-107.913666,380.000000,-366.666656,127.500000,4.550228,1.540077,-1.820091,1145
-1007.194214,95.923256,-119.904068,388.888885,-362.222229,125.000000,1.120056,-0.280014,-0.910046,1146
-1007.194214,47.961628,-131.894485,382.222229,-364.444458,125.000000,-1.190060,-0.700035,-0.840042,1147
-1007.194214,-23.980814,-71.942444,386.666656,-362.222229,125.000000,-3.500175,-1.680084,0.980049,1148
-1031.175049,-11.990407,-71.942444,388.888885,-366.666656,127.500000,-3.500175,-1.960098,1.750087,1149
-1031.175049,23.980814,-119.904068,386.666656,-364.444458,125.000000,-3.430171,-1.330067,0.420021,1150
-1055.155884,23.980814,-59.952034,386.666656,-360.000000,125.000000,-2.730137,-1.470073,0.980049,1151
-1055.155884,23.980814,-47.961628,386.666656,-360.000000,125.000000,-2.030102,-1.260063,1.330067,1152
-1043.165405,59.952034,-59.952034,384.444458,-366.666656,127.500000,-1.050053,-1.400070,1.400070,1153
-1031.175049,47.961628,-71.942444,388.888885,-360.000000,122.500000,-0.280014,-0.910046,1.190060,1154
-1007.194214,47.961628,-11.990407,382.222229,-366.666656,127.500000,0.700035,-0.210010,0.840042,1155
-983.213379,47.961628,-95.923256,386.666656,-362.222229,122.500000,4.130207,1.120056,-0.910046,1156
-1019.184631,35.971222,-107.913666,386.666656,-364.444458,125.000000,5.460273,1.050053,-0.420021,1157
-1031.175049,0.000000,-119.904068,388.888885,-366.666656,125.000000,6.020301,1.680084,-0.140007,1158
-1019.184631,11.990407,-119.904068,384.444458,-364.444458,125.000000,3.990200,0.490025,0.350018,1159
-1055.155884,71.942444,-143.884888,386.666656,-360.000000,125.000000,1.820091,-0.420021,-0.490025,1160
-995.203796,23.980814,-131.894485,382.222229,-366.666656,130.000000,0.280014,0.070004,0.280014,1161
-1031.175049,0.000000,-95.923256,388.888885,-360.000000,125.000000,-0.630032,0.140007,-0.700035,1162
-1031.175049,0.000000,-107.913666,384.444458,-371.111115,132.500000,-1.050053,0.140007,-0.840042,1163
-983.213379,47.961628,-119.904068,386.666656,-362.222229,125.000000,-2.940147,-0.210010,-1.050053,1164
-1007.194214,11.990407,-131.894485,384.444458,-368.888885,127.500000,-3.360168,0.140007,-1.680084,1165
-983.213379,23.980814,-119.904068,386.666656,-362.222229,127.500000,-4.340217,0.420021,-2.100105,1166
-1031.175049,23.980814,-131.894485,386.666656,-364.444458,125.000000,-4.830242,0.840042,-2.100105,1167
-1055.155884,0.000000,-95.923256,384.444458,-366.666656,122.500000,-5.810291,0.560028,-1.470073,1168
-1007.194214,23.980814,-119.904068,384.444458,-368.888885,125.000000,-6.720336,0.140007,-1.820091,1169
-1007.194214,23.980814,-71.942444,384.444458,-360.000000,122.500000,-7.980399,-0.700035,-1.470073,1170
-1031.175049,11.990407,-71.942444,382.222229,-368.888885,127.500000,-8.610431,-1.960098,-0.560028,1171
-1007.194214,47.961628,-191.846512,388.888885,-364.444458,125.000000,-8.400420,-2.800140,0.210010,1172
-1019.184631,23.980814,-131.894485,384.444458,-366.666656,130.000000,-7.910396,-3.080154,0.210010,1173
