ACC_X,ACC_Y,ACC_Z,MAG_X,MAG_Y,MAG_Z, GYRO_Y,GYRO_X,GYRO_Z,COUNT
11.990407,23.980814,731.414856,560.000000,-853.333313,-1030.000000,-9.240462,5.180259,-9.450473,0
-47.961628,0.000000,983.213379,228.888885,-355.555542,-420.000000,-11.900595,6.230311,-11.340568,1
-23.980814,11.990407,959.232544,228.888885,-353.333344,-422.500000,-11.760588,5.950297,-11.480575,2
-23.980814,-47.961628,983.213379,228.888885,-355.555542,-420.000000,-11.830591,6.020301,-11.550578,3
0.000000,11.990407,971.222961,224.444443,-351.111115,-420.000000,-11.900595,6.090304,-11.550578,4
0.000000,47.961628,935.251770,226.666672,-357.777771,-420.000000,-11.760588,6.020301,-11.410571,5
0.000000,23.980814,947.242188,226.666672,-348.888885,-422.500000,-11.690584,6.160308,-11.270564,6
-23.980814,23.980814,935.251770,226.666672,-357.777771,-417.500000,-11.830591,5.950297,-11.060554,7
-23.980814,35.971222,911.270935,231.111115,-348.888885,-425.000000,-11.550578,5.950297,-10.640532,8
-11.990407,11.990407,911.270935,228.888885,-355.555542,-417.500000,-11.550578,5.740287,-10.990550,9
0.000000,-47.961628,983.213379,226.666672,-355.555542,-422.500000,-11.900595,6.020301,-11.200561,10
0.000000,-11.990407,947.242188,228.888885,-357.777771,-415.000000,-11.480575,6.160308,-10.640532,11
-47.961628,0.000000,959.232544,226.666672,-353.333344,-420.000000,-10.710536,5.460273,-10.360518,12
-23.980814,11.990407,971.222961,228.888885,-355.555542,-420.000000,-10.360518,5.110256,-9.870494,13
-23.980814,23.980814,935.251770,231.111115,-348.888885,-425.000000,-9.800490,4.830242,-9.240462,14
0.000000,23.980814,935.251770,231.111115,-357.777771,-415.000000,-9.450473,4.830242,-9.030452,15
23.980814,0.000000,935.251770,231.111115,-351.111115,-420.000000,-8.120406,4.690235,-8.330417,16
11.990407,23.980814,935.251770,226.666672,-357.777771,-415.000000,-6.790339,4.130207,-7.350368,17
-23.980814,0.000000,911.270935,226.666672,-348.888885,-420.000000,-5.110256,3.640182,-6.160308,18
-23.980814,0.000000,935.251770,226.666672,-357.777771,-417.500000,-3.640182,3.430171,-4.270214,19
-23.980814,23.980814,959.232544,233.333328,-353.333344,-420.000000,-1.330067,2.450123,-3.500175,20
0.000000,11.990407,959.232544,228.888885,-351.111115,-417.500000,0.070004,1.890095,-2.030102,21
0.000000,23.980814,911.270935,228.888885,-353.333344,-420.000000,0.560028,1.540077,-1.260063,22
-11.990407,23.980814,935.251770,228.888885,-357.777771,-412.500000,1.820091,0.280014,-0.420021,23
-47.961628,0.000000,911.270935,228.888885,-351.111115,-420.000000,3.920196,0.350018,0.000000,24
-23.980814,47.961628,923.261353,226.666672,-360.000000,-417.500000,4.760238,0.280014,-0.210010,25
-23.980814,-23.980814,959.232544,228.888885,-351.111115,-422.500000,5.740287,0.000000,0.910046,26
-35.971222,-11.990407,983.213379,224.444443,-357.777771,-417.500000,0.000000,-0.420021,-0.490025,27
-23.980814,-23.980814,959.232544,226.666672,-357.777771,-425.000000,-1.330067,0.350018,-0.910046,28
-23.980814,0.000000,935.251770,231.111115,-355.555542,-420.000000,-1.540077,-0.070004,-0.840042,29
-11.990407,11.990407,959.232544,231.111115,-353.333344,-417.500000,-0.910046,0.070004,-0.840042,30
-23.980814,23.980814,983.213379,228.888885,-357.777771,-417.500000,-1.400070,0.070004,-0.910046,31
-23.980814,-23.980814,959.232544,231.111115,-355.555542,-420.000000,-1.680084,0.000000,-0.700035,32
-11.990407,0.000000,971.222961,224.444443,-357.777771,-415.000000,-1.470073,-0.210010,0.770038,33
0.000000,-23.980814,911.270935,228.888885,-351.111115,-422.500000,-1.120056,-0.070004,-0.280014,34
-23.980814,23.980814,935.251770,228.888885,-357.777771,-420.000000,-1.750087,0.140007,0.420021,35
0.000000,0.000000,935.251770,228.888885,-351.111115,-420.000000,-1.610080,0.070004,0.000000,36
0.000000,-11.990407,923.261353,226.666672,-351.111115,-422.500000,-1.540077,0.210010,-0.910046,37
0.000000,0.000000,959.232544,228.888885,-353.333344,-422.500000,-0.840042,-0.280014,-1.050053,38
-23.980814,35.971222,959.232544,226.666672,-353.333344,-417.500000,-0.700035,0.000000,-0.700035,39
0.000000,23.980814,911.270935,226.666672,-351.111115,-420.000000,-0.700035,-0.280014,-0.210010,40
0.000000,23.980814,947.242188,228.888885,-353.333344,-417.500000,-0.840042,0.140007,-1.190060,41
-23.980814,0.000000,983.213379,228.888885,-353.333344,-420.000000,-1.050053,-0.420021,-0.910046,42
-11.990407,11.990407,959.232544,228.888885,-355.555542,-417.500000,-1.470073,0.420021,0.140007,43
-23.980814,11.990407,923.261353,226.666672,-353.333344,-420.000000,-0.840042,0.140007,-0.980049,44
0.000000,0.000000,959.232544,224.444443,-353.333344,-417.500000,-1.680084,-0.420021,-1.120056,45
11.990407,35.971222,935.251770,231.111115,-351.111115,-420.000000,-1.540077,-0.210010,-0.980049,46
0.000000,71.942444,959.232544,228.888885,-355.555542,-417.500000,-1.610080,-0.350018,-1.330067,47
-23.980814,71.942444,959.232544,228.888885,-348.888885,-420.000000,-1.190060,-0.490025,-1.400070,48
0.000000,71.942444,911.270935,226.666672,-360.000000,-417.500000,-1.330067,0.000000,-1.120056,49
-23.980814,59.952034,947.242188,228.888885,-348.888885,-422.500000,-1.680084,-0.280014,-0.980049,50
-47.961628,47.961628,911.270935,226.666672,-357.777771,-417.500000,-1.680084,-0.210010,-1.120056,51
-11.990407,35.971222,911.270935,226.666672,-353.333344,-422.500000,-1.400070,-0.210010,-1.470073,52
0.000000,23.980814,911.270935,226.666672,-355.555542,-417.500000,-1.120056,0.070004,-1.330067,53
-11.990407,23.980814,923.261353,226.666672,-348.888885,-417.500000,-0.420021,-0.070004,-1.190060,54
-11.990407,59.952034,923.261353,224.444443,-357.777771,-417.500000,-0.490025,0.210010,-0.910046,55
-23.980814,0.000000,959.232544,226.666672,-351.111115,-422.500000,-0.490025,0.350018,-1.260063,56
-11.990407,35.971222,959.232544,226.666672,-357.777771,-415.000000,-0.840042,-0.420021,-0.980049,57
-23.980814,0.000000,911.270935,228.888885,-351.111115,-422.500000,-0.770038,-0.070004,-0.770038,58
-11.990407,0.000000,899.280518,224.444443,-355.555542,-417.500000,-0.490025,-0.140007,-1.470073,59
-71.942444,23.980814,935.251770,224.444443,-348.888885,-420.000000,0.070004,0.840042,-1.400070,60
-23.980814,23.980814,959.232544,226.666672,-353.333344,-420.000000,-0.280014,0.280014,-1.610080,61
0.000000,-23.980814,935.251770,228.888885,-353.333344,-420.000000,-0.350018,0.070004,-1.610080,62
-11.990407,11.990407,911.270935,228.888885,-357.777771,-420.000000,0.070004,0.350018,-0.770038,63
-11.990407,0.000000,911.270935,231.111115,-351.111115,-422.500000,-0.630032,0.140007,-0.910046,64
-23.980814,0.000000,923.261353,226.666672,-360.000000,-417.500000,-0.770038,0.490025,-0.630032,65
0.000000,47.961628,983.213379,233.333328,-351.111115,-422.500000,-0.630032,0.210010,-0.910046,66
-23.980814,23.980814,971.222961,224.444443,-357.777771,-417.500000,-0.350018,0.140007,-0.700035,67
-47.961628,23.980814,911.270935,231.111115,-351.111115,-422.500000,-1.120056,0.700035,-0.070004,68
-35.971222,11.990407,935.251770,231.111115,-355.555542,-417.500000,-1.120056,0.490025,-0.140007,69
0.000000,0.000000,983.213379,228.888885,-353.333344,-422.500000,-1.610080,0.210010,-0.140007,70
0.000000,0.000000,959.232544,228.888885,-357.777771,-417.500000,-1.540077,0.280014,-0.700035,71
-23.980814,0.000000,959.232544,228.888885,-348.888885,-420.000000,-2.030102,0.070004,-0.140007,72
-11.990407,0.000000,947.242188,226.666672,-355.555542,-417.500000,-1.890095,0.140007,0.140007,73
-23.980814,23.980814,935.251770,231.111115,-348.888885,-425.000000,-1.750087,-0.280014,-0.140007,74
-11.990407,0.000000,935.251770,224.444443,-357.777771,-415.000000,-2.310116,0.560028,-0.980049,75
-23.980814,0.000000,935.251770,231.111115,-351.111115,-422.500000,-2.100105,-0.070004,0.280014,76
-59.952034,35.971222,959.232544,226.666672,-355.555542,-420.000000,-1.750087,0.560028,-0.770038,77
-11.990407,23.980814,923.261353,224.444443,-348.888885,-420.000000,-2.450123,0.140007,0.000000,78
0.000000,47.961628,911.270935,226.666672,-355.555542,-415.000000,-2.240112,0.350018,-0.140007,79
11.990407,59.952034,959.232544,231.111115,-348.888885,-425.000000,-2.520126,0.140007,-0.560028,80
-23.980814,0.000000,911.270935,224.444443,-355.555542,-415.000000,-2.380119,-0.070004,-0.700035,81
-11.990407,11.990407,935.251770,226.666672,-348.888885,-420.000000,-2.520126,-0.140007,0.700035,82
23.980814,-23.980814,983.213379,226.666672,-357.777771,-417.500000,-2.100105,-0.350018,0.140007,83
0.000000,23.980814,995.203796,228.888885,-348.888885,-420.000000,-1.610080,0.000000,0.910046,84
-23.980814,47.961628,1007.194214,228.888885,-351.111115,-417.500000,-1.680084,0.210010,1.960098,85
-11.990407,0.000000,995.203796,226.666672,-353.333344,-417.500000,-2.310116,0.210010,1.050053,86
0.000000,0.000000,983.213379,226.666672,-351.111115,-417.500000,-2.170109,0.070004,1.120056,87
-35.971222,-11.990407,959.232544,226.666672,-348.888885,-425.000000,-2.310116,0.210010,0.350018,88
-23.980814,47.961628,887.290100,226.666672,-362.222229,-417.500000,-1.610080,-0.210010,0.840042,89
-23.980814,35.971222,923.261353,228.888885,-351.111115,-422.500000,-1.890095,0.070004,0.910046,90
23.980814,23.980814,911.270935,224.444443,-355.555542,-417.500000,-2.030102,-0.210010,0.910046,91
0.000000,11.990407,947.242188,231.111115,-348.888885,-425.000000,-2.170109,0.490025,0.350018,92
-23.980814,0.000000,911.270935,224.444443,-355.555542,-415.000000,-3.150157,0.070004,0.000000,93
-23.980814,35.971222,947.242188,228.888885,-353.333344,-420.000000,-3.010150,-0.350018,-0.420021,94
0.000000,23.980814,935.251770,224.444443,-355.555542,-415.000000,-2.660133,-0.560028,-0.420021,95
-23.980814,23.980814,959.232544,231.111115,-348.888885,-422.500000,-2.730137,-0.210010,0.070004,96
0.000000,0.000000,887.290100,226.666672,-357.777771,-417.500000,-2.590130,0.070004,-0.350018,97
-11.990407,23.980814,935.251770,228.888885,-351.111115,-420.000000,-2.380119,0.140007,-1.120056,98
-23.980814,0.000000,935.251770,224.444443,-357.777771,-417.500000,-2.310116,-0.140007,-0.980049,99
0.000000,-11.990407,947.242188,228.888885,-348.888885,-417.500000,-1.890095,0.350018,-0.210010,100
0.000000,23.980814,1007.194214,226.666672,-351.111115,-417.500000,-1.470073,0.560028,1.120056,101
-23.980814,23.980814,983.213379,224.444443,-351.111115,-417.500000,-1.190060,0.420021,0.420021,102
-23.980814,0.000000,959.232544,222.222229,-357.777771,-420.000000,-1.330067,0.000000,0.210010,103
-11.990407,11.990407,971.222961,228.888885,-355.555542,-417.500000,-1.050053,0.630032,0.210010,104
0.000000,-23.980814,959.232544,226.666672,-362.222229,-415.000000,-0.700035,0.420021,0.630032,105
0.000000,0.000000,959.232544,224.444443,-348.888885,-425.000000,-1.400070,1.050053,0.980049,106
-23.980814,0.000000,887.290100,226.666672,-355.555542,-417.500000,-0.980049,0.560028,0.770038,107
-23.980814,23.980814,923.261353,231.111115,-348.888885,-420.000000,-0.560028,0.840042,0.700035,108
-23.980814,0.000000,887.290100,226.666672,-351.111115,-420.000000,-0.490025,0.280014,-0.280014,109
-35.971222,0.000000,875.299744,228.888885,-353.333344,-417.500000,-0.560028,0.000000,-0.280014,110
-23.980814,23.980814,959.232544,222.222229,-360.000000,-417.500000,-1.190060,0.140007,-0.140007,111
-11.990407,0.000000,971.222961,228.888885,-355.555542,-417.500000,-1.540077,0.210010,-0.630032,112
-23.980814,0.000000,959.232544,224.444443,-357.777771,-417.500000,-1.750087,-0.350018,-0.280014,113
-23.980814,23.980814,935.251770,228.888885,-353.333344,-420.000000,-1.610080,-0.140007,-0.770038,114
-23.980814,0.000000,959.232544,226.666672,-355.555542,-417.500000,-1.400070,0.210010,-0.700035,115
-23.980814,0.000000,947.242188,224.444443,-351.111115,-422.500000,-1.400070,0.280014,-1.400070,116
0.000000,0.000000,959.232544,226.666672,-353.333344,-417.500000,-1.540077,0.140007,-1.610080,117
-23.980814,-11.990407,959.232544,226.666672,-353.333344,-420.000000,-1.470073,0.350018,-1.400070,118
0.000000,23.980814,911.270935,226.666672,-357.777771,-417.500000,-1.400070,0.490025,-1.260063,119
0.000000,23.980814,935.251770,228.888885,-353.333344,-425.000000,-1.120056,0.350018,-1.820091,120
-11.990407,35.971222,923.261353,224.444443,-360.000000,-415.000000,-1.260063,0.560028,-1.750087,121
-11.990407,23.980814,911.270935,228.888885,-353.333344,-420.000000,-1.120056,0.420021,-1.750087,122
0.000000,47.961628,887.290100,224.444443,-360.000000,-417.500000,-0.980049,0.350018,-0.980049,123
11.990407,23.980814,923.261353,231.111115,-351.111115,-422.500000,-0.840042,-0.210010,-1.190060,124
0.000000,71.942444,911.270935,226.666672,-357.777771,-415.000000,-0.770038,-0.210010,0.140007,125
0.000000,23.980814,935.251770,226.666672,-353.333344,-417.500000,-1.190060,-0.350018,-0.770038,126
95.923256,71.942444,983.213379,226.666672,-360.000000,-417.500000,-1.190060,-0.280014,-0.210010,127
11.990407,0.000000,935.251770,228.888885,-353.333344,-420.000000,-1.610080,-0.280014,-0.490025,128
-47.961628,47.961628,935.251770,224.444443,-357.777771,-417.500000,-1.890095,-0.560028,0.000000,129
-47.961628,23.980814,935.251770,226.666672,-351.111115,-425.000000,-1.960098,-0.560028,-0.350018,130
0.000000,0.000000,911.270935,226.666672,-357.777771,-417.500000,-0.840042,-0.280014,-0.700035,131
0.000000,11.990407,935.251770,226.666672,-348.888885,-422.500000,-0.910046,0.210010,-1.050053,132
0.000000,0.000000,959.232544,228.888885,-357.777771,-417.500000,-0.770038,0.280014,-0.770038,133
0.000000,23.980814,935.251770,226.666672,-357.777771,-417.500000,-1.050053,-0.420021,-0.840042,134
11.990407,-11.990407,971.222961,226.666672,-355.555542,-417.500000,-1.190060,0.490025,-1.400070,135
23.980814,23.980814,983.213379,226.666672,-348.888885,-420.000000,-0.910046,0.350018,-1.470073,136
-23.980814,11.990407,959.232544,224.444443,-357.777771,-422.500000,-1.330067,0.000000,-1.120056,137
-23.980814,0.000000,959.232544,226.666672,-348.888885,-422.500000,-1.260063,0.630032,-0.910046,138
0.000000,11.990407,959.232544,224.444443,-360.000000,-417.500000,-1.190060,0.490025,-0.910046,139
-47.961628,47.961628,935.251770,228.888885,-346.666656,-420.000000,-1.120056,0.210010,-1.470073,140
-11.990407,23.980814,971.222961,226.666672,-353.333344,-420.000000,-1.540077,0.210010,-1.400070,141
0.000000,23.980814,959.232544,226.666672,-353.333344,-425.000000,-1.820091,-0.280014,-1.750087,142
-11.990407,11.990407,923.261353,224.444443,-353.333344,-417.500000,-1.610080,-0.280014,-1.260063,143
0.000000,0.000000,911.270935,228.888885,-353.333344,-422.500000,-1.260063,0.350018,-1.470073,144
-23.980814,11.990407,923.261353,222.222229,-357.777771,-417.500000,-1.680084,0.490025,-1.330067,145
-11.990407,23.980814,911.270935,226.666672,-351.111115,-422.500000,-1.470073,0.210010,-1.470073,146
-47.961628,23.980814,959.232544,226.666672,-357.777771,-417.500000,-1.680084,0.210010,-0.420021,147
-23.980814,0.000000,959.232544,226.666672,-348.888885,-425.000000,-1.610080,0.000000,-0.630032,148
23.980814,-47.961628,935.251770,226.666672,-360.000000,-415.000000,-1.680084,0.560028,0.070004,149
-23.980814,11.990407,935.251770,226.666672,-351.111115,-420.000000,-1.610080,0.140007,-0.140007,150
-23.980814,0.000000,959.232544,224.444443,-355.555542,-415.000000,-0.980049,0.210010,0.070004,151
-35.971222,0.000000,947.242188,228.888885,-351.111115,-420.000000,-1.470073,-0.210010,0.350018,152
0.000000,23.980814,911.270935,226.666672,-355.555542,-415.000000,-2.030102,0.000000,-0.280014,153
-11.990407,23.980814,923.261353,226.666672,-357.777771,-422.500000,-1.890095,0.140007,0.070004,154
167.865707,23.980814,983.213379,224.444443,-357.777771,-415.000000,-1.120056,0.280014,0.560028,155
-11.990407,0.000000,971.222961,228.888885,-351.111115,-425.000000,-1.400070,-0.630032,0.980049,156
23.980814,-23.980814,911.270935,224.444443,-355.555542,-417.500000,-1.260063,-0.140007,0.630032,157
0.000000,23.980814,935.251770,222.222229,-357.777771,-422.500000,-0.700035,0.280014,0.140007,158
-23.980814,23.980814,935.251770,228.888885,-355.555542,-420.000000,-0.630032,0.350018,-0.700035,159
0.000000,35.971222,935.251770,228.888885,-348.888885,-422.500000,-0.840042,0.280014,-0.910046,160
-23.980814,23.980814,959.232544,222.222229,-357.777771,-417.500000,-0.700035,0.420021,-0.910046,161
0.000000,0.000000,947.242188,228.888885,-348.888885,-420.000000,-1.050053,0.700035,-1.540077,162
-47.961628,23.980814,959.232544,226.666672,-355.555542,-417.500000,-0.630032,0.140007,-1.680084,163
-23.980814,35.971222,923.261353,228.888885,-351.111115,-420.000000,-0.910046,0.070004,-1.330067,164
-23.980814,-47.961628,983.213379,226.666672,-355.555542,-420.000000,-0.910046,0.280014,-1.330067,165
-23.980814,0.000000,947.242188,226.666672,-355.555542,-417.500000,-0.770038,0.420021,-0.910046,166
0.000000,0.000000,959.232544,226.666672,-355.555542,-417.500000,-0.980049,0.140007,-1.260063,167
0.000000,0.000000,935.251770,228.888885,-346.666656,-422.500000,-1.260063,0.000000,-1.400070,168
11.990407,35.971222,971.222961,224.444443,-351.111115,-420.000000,-1.540077,0.210010,-1.540077,169
23.980814,0.000000,911.270935,226.666672,-344.444458,-422.500000,-0.980049,0.350018,-1.330067,170
11.990407,11.990407,983.213379,224.444443,-357.777771,-417.500000,-0.490025,0.070004,-1.330067,171
-23.980814,23.980814,863.309326,226.666672,-351.111115,-420.000000,-1.540077,0.070004,-1.190060,172
-23.980814,59.952034,911.270935,224.444443,-355.555542,-415.000000,-0.420021,0.070004,-0.840042,173
-47.961628,-47.961628,935.251770,224.444443,-353.333344,-422.500000,-0.280014,0.210010,-0.630032,174
-47.961628,11.990407,923.261353,226.666672,-353.333344,-417.500000,0.490025,-0.420021,-0.980049,175
-23.980814,0.000000,935.251770,226.666672,-348.888885,-420.000000,0.140007,0.350018,-0.980049,176
-23.980814,0.000000,935.251770,228.888885,-357.777771,-415.000000,-0.490025,0.000000,-1.400070,177
-11.990407,0.000000,959.232544,226.666672,-348.888885,-420.000000,-0.350018,0.420021,-0.210010,178
-35.971222,0.000000,983.213379,224.444443,-360.000000,-417.500000,-0.560028,0.210010,-1.470073,179
0.000000,0.000000,935.251770,231.111115,-351.111115,-420.000000,-0.420021,0.700035,-0.770038,180
0.000000,11.990407,947.242188,226.666672,-357.777771,-417.500000,0.210010,0.210010,-1.120056,181
23.980814,-23.980814,935.251770,222.222229,-353.333344,-427.500000,-0.770038,0.280014,-1.120056,182
-23.980814,0.000000,947.242188,226.666672,-351.111115,-420.000000,-0.420021,0.000000,-0.840042,183
0.000000,0.000000,935.251770,226.666672,-348.888885,-420.000000,-0.560028,0.280014,-0.980049,184
-11.990407,11.990407,947.242188,226.666672,-357.777771,-420.000000,-0.770038,0.210010,-1.120056,185
0.000000,23.980814,935.251770,226.666672,-351.111115,-425.000000,-0.980049,0.560028,-1.190060,186
11.990407,11.990407,971.222961,224.444443,-357.777771,-417.500000,-0.490025,0.560028,-0.350018,187
-23.980814,23.980814,959.232544,228.888885,-355.555542,-422.500000,-0.700035,0.490025,-1.120056,188
-11.990407,11.990407,947.242188,224.444443,-357.777771,-415.000000,-1.680084,0.070004,-1.260063,189
0.000000,0.000000,1007.194214,226.666672,-351.111115,-422.500000,-1.610080,-0.210010,-1.050053,190
-107.913666,-11.990407,1055.155884,226.666672,-353.333344,-417.500000,-2.590130,-0.140007,-0.980049,191
83.932854,71.942444,875.299744,226.666672,-351.111115,-420.000000,-10.570529,-2.940147,-0.140007,192
0.000000,23.980814,935.251770,228.888885,-357.777771,-417.500000,-6.020301,-1.400070,-0.770038,193
-11.990407,11.990407,947.242188,226.666672,-351.111115,-420.000000,-3.220161,-0.490025,-0.700035,194
0.000000,23.980814,959.232544,226.666672,-357.777771,-420.000000,-2.660133,-0.140007,-1.470073,195
-23.980814,11.990407,971.222961,228.888885,-355.555542,-422.500000,-1.890095,-0.140007,-1.120056,196
0.000000,-47.961628,959.232544,226.666672,-357.777771,-417.500000,-1.610080,0.490025,-1.540077,197
11.990407,47.961628,947.242188,226.666672,-355.555542,-422.500000,-1.050053,0.280014,-1.400070,198
0.000000,47.961628,911.270935,228.888885,-360.000000,-420.000000,-0.980049,0.280014,-1.190060,199
-11.990407,23.980814,971.222961,228.888885,-351.111115,-427.500000,-0.980049,0.210010,-1.190060,200
0.000000,-23.980814,959.232544,224.444443,-357.777771,-417.500000,0.350018,0.210010,-0.350018,201
-47.961628,0.000000,959.232544,226.666672,-351.111115,-420.000000,1.120056,0.770038,-0.560028,202
-23.980814,-47.961628,959.232544,224.444443,-357.777771,-417.500000,1.260063,0.700035,-1.330067,203
11.990407,11.990407,923.261353,228.888885,-353.333344,-422.500000,-10.430522,-3.990200,-0.560028,204
0.000000,0.000000,911.270935,224.444443,-357.777771,-415.000000,-1.890095,-0.770038,-0.420021,205
0.000000,23.980814,947.242188,224.444443,-348.888885,-420.000000,6.300315,2.240112,-0.420021,206
0.000000,-23.980814,935.251770,228.888885,-355.555542,-420.000000,4.970249,1.890095,-0.840042,207
-11.990407,11.990407,923.261353,224.444443,-351.111115,-425.000000,3.990200,1.610080,-1.960098,208
23.980814,0.000000,911.270935,228.888885,-351.111115,-417.500000,5.600280,1.400070,-1.330067,209
-11.990407,35.971222,983.213379,226.666672,-351.111115,-422.500000,4.830242,1.610080,-1.750087,210
0.000000,23.980814,959.232544,228.888885,-355.555542,-415.000000,4.270214,1.610080,-1.820091,211
0.000000,0.000000,923.261353,228.888885,-351.111115,-425.000000,5.390270,1.330067,-2.100105,212
-11.990407,0.000000,935.251770,224.444443,-355.555542,-417.500000,4.900245,1.540077,-2.170109,213
-23.980814,0.000000,935.251770,228.888885,-351.111115,-420.000000,0.350018,0.980049,-3.290164,214
47.961628,23.980814,839.328491,231.111115,-348.888885,-420.000000,-11.060554,-6.300315,-0.910046,215
59.952034,11.990407,899.280518,228.888885,-351.111115,-420.000000,-8.680434,-4.200210,-1.400070,216
-23.980814,23.980814,935.251770,228.888885,-360.000000,-415.000000,4.830242,-0.840042,-2.170109,217
-23.980814,23.980814,935.251770,231.111115,-353.333344,-422.500000,6.160308,-0.070004,-0.140007,218
-47.961628,0.000000,935.251770,224.444443,-357.777771,-417.500000,5.460273,-0.070004,0.000000,219
-59.952034,35.971222,959.232544,226.666672,-351.111115,-420.000000,1.120056,-3.500175,-1.960098,220
-191.846512,-47.961628,1175.059937,224.444443,-360.000000,-417.500000,-1.680084,-4.550228,-0.910046,221
-23.980814,0.000000,983.213379,228.888885,-348.888885,-417.500000,-12.250612,-6.580329,-0.070004,222
119.904068,47.961628,935.251770,226.666672,-355.555542,-420.000000,-7.630382,-4.480224,-0.910046,223
107.913666,119.904068,935.251770,226.666672,-355.555542,-417.500000,-7.770389,-10.500525,0.490025,224
-71.942444,23.980814,1007.194214,226.666672,-360.000000,-415.000000,-8.680434,-6.580329,4.200210,225
-35.971222,-23.980814,947.242188,228.888885,-353.333344,-422.500000,-9.240462,-7.350368,2.100105,226
-23.980814,0.000000,947.242188,222.222229,-353.333344,-412.500000,-7.560378,-6.580329,2.870144,227
-95.923256,-23.980814,911.270935,228.888885,-351.111115,-417.500000,-3.780189,-5.460273,2.590130,228
-35.971222,35.971222,911.270935,226.666672,-360.000000,-417.500000,-2.380119,-4.200210,0.210010,229
-47.961628,47.961628,695.443604,226.666672,-353.333344,-417.500000,-0.630032,-3.500175,0.840042,230
-23.980814,35.971222,899.280518,224.444443,-355.555542,-415.000000,4.480224,-0.840042,3.290164,231
0.000000,23.980814,935.251770,226.666672,-353.333344,-417.500000,0.000000,-3.150157,3.290164,232
11.990407,-11.990407,923.261353,224.444443,-360.000000,-412.500000,0.210010,-2.380119,5.110256,233
0.000000,23.980814,887.290100,228.888885,-355.555542,-422.500000,0.980049,-3.010150,6.510325,234
-11.990407,35.971222,947.242188,222.222229,-362.222229,-415.000000,0.420021,-2.730137,9.380469,235
11.990407,23.980814,947.242188,226.666672,-355.555542,-420.000000,-0.700035,-3.640182,11.830591,236
35.971222,23.980814,935.251770,224.444443,-362.222229,-415.000000,-1.890095,-2.660133,14.140707,237
-47.961628,23.980814,911.270935,228.888885,-355.555542,-420.000000,-4.690235,-2.170109,13.790689,238
-35.971222,47.961628,935.251770,224.444443,-357.777771,-415.000000,-6.370318,-1.820091,10.920547,239
47.961628,0.000000,959.232544,222.222229,-360.000000,-420.000000,-8.820441,-0.980049,8.680434,240
-47.961628,0.000000,935.251770,226.666672,-362.222229,-415.000000,-7.560378,-2.310116,9.170459,241
-71.942444,23.980814,911.270935,226.666672,-353.333344,-420.000000,-6.230311,-2.170109,9.170459,242
-23.980814,23.980814,923.261353,222.222229,-362.222229,-420.000000,-4.550228,-2.380119,8.680434,243
0.000000,47.961628,911.270935,226.666672,-355.555542,-422.500000,-2.520126,-2.100105,10.500525,244
-35.971222,11.990407,923.261353,222.222229,-362.222229,-415.000000,-1.540077,-1.820091,10.640532,245
-47.961628,71.942444,911.270935,224.444443,-355.555542,-420.000000,-1.400070,-0.560028,11.200561,246
-23.980814,59.952034,935.251770,224.444443,-362.222229,-412.500000,-1.260063,0.840042,14.070704,247
-23.980814,0.000000,887.290100,226.666672,-355.555542,-420.000000,-1.610080,0.560028,12.880644,248
-11.990407,23.980814,911.270935,222.222229,-360.000000,-415.000000,-3.640182,1.330067,12.950647,249
-11.990407,47.961628,911.270935,224.444443,-355.555542,-420.000000,-3.570179,2.100105,14.140707,250
-167.865707,0.000000,935.251770,217.777771,-362.222229,-420.000000,-1.120056,2.100105,15.050753,251
-95.923256,71.942444,923.261353,222.222229,-357.777771,-422.500000,1.680084,1.540077,15.610781,252
-23.980814,-47.961628,959.232544,217.777771,-364.444458,-417.500000,2.380119,-0.280014,23.941196,253
23.980814,-23.980814,971.222961,222.222229,-357.777771,-417.500000,2.100105,0.910046,32.901646,254
-23.980814,47.961628,959.232544,217.777771,-362.222229,-415.000000,-3.500175,-0.280014,25.411270,255
-35.971222,0.000000,983.213379,215.555557,-360.000000,-420.000000,-9.730487,-4.900245,22.821142,256
23.980814,23.980814,911.270935,213.333328,-366.666656,-415.000000,-12.320616,-7.350368,22.681135,257
11.990407,-11.990407,923.261353,220.000000,-360.000000,-420.000000,-13.650682,-8.120406,21.071054,258
35.971222,-23.980814,911.270935,213.333328,-366.666656,-415.000000,-15.610781,-8.050403,15.960798,259
35.971222,-35.971222,1055.155884,213.333328,-362.222229,-422.500000,-17.220861,-6.580329,13.230661,260
-23.980814,-23.980814,1031.175049,213.333328,-368.888885,-415.000000,-20.371019,-8.750438,10.500525,261
-23.980814,-23.980814,1031.175049,215.555557,-360.000000,-422.500000,-23.381168,-12.810640,8.540427,262
-47.961628,0.000000,959.232544,211.111115,-366.666656,-417.500000,-26.741337,-14.910746,6.020301,263
-23.980814,0.000000,971.222961,211.111115,-366.666656,-417.500000,-27.091354,-14.070704,3.710186,264
-71.942444,0.000000,887.290100,208.888885,-366.666656,-417.500000,-26.111305,-12.180609,1.890095,265
-83.932854,23.980814,935.251770,213.333328,-364.444458,-420.000000,-23.661182,-9.240462,-2.730137,266
-119.904068,71.942444,935.251770,208.888885,-371.111115,-417.500000,-20.161009,-4.480224,-5.670284,267
-59.952034,71.942444,971.222961,213.333328,-364.444458,-420.000000,-12.950647,4.340217,-7.770389,268
-71.942444,23.980814,1007.194214,206.666672,-366.666656,-422.500000,-6.020301,12.460623,-9.240462,269
-83.932854,107.913666,1043.165405,211.111115,-362.222229,-422.500000,-2.590130,16.310816,-11.060554,270
-71.942444,71.942444,1079.136597,208.888885,-368.888885,-420.000000,-2.730137,18.410921,-11.410571,271
-35.971222,59.952034,1103.117432,211.111115,-366.666656,-422.500000,-5.250263,17.150858,-11.550578,272
-35.971222,23.980814,1103.117432,206.666672,-362.222229,-420.000000,-7.770389,15.680784,-12.040602,273
-23.980814,95.923256,1127.098267,211.111115,-360.000000,-427.500000,-9.520476,23.241163,-12.600630,274
-23.980814,11.990407,1115.107910,208.888885,-366.666656,-420.000000,-7.000350,20.581030,-11.340568,275
-47.961628,47.961628,1055.155884,208.888885,-357.777771,-427.500000,-6.650332,24.081203,-10.220511,276
-11.990407,23.980814,1055.155884,206.666672,-366.666656,-420.000000,-5.950297,24.571228,-9.590480,277
-23.980814,-23.980814,1055.155884,211.111115,-357.777771,-427.500000,-4.410221,20.511026,-7.490375,278
-83.932854,-11.990407,1031.175049,208.888885,-362.222229,-422.500000,-3.780189,19.740988,-7.350368,279
-47.961628,47.961628,1055.155884,211.111115,-360.000000,-427.500000,-1.540077,15.960798,-8.470424,280
-23.980814,11.990407,1103.117432,215.555557,-357.777771,-427.500000,1.190060,14.140707,-6.650332,281
0.000000,0.000000,1079.136597,211.111115,-351.111115,-432.500000,4.970249,12.600630,-4.620231,282
23.980814,-11.990407,1067.146240,208.888885,-360.000000,-427.500000,10.220511,13.720686,-2.170109,283
0.000000,23.980814,1055.155884,211.111115,-351.111115,-430.000000,11.060554,17.430872,1.120056,284
-11.990407,11.990407,1067.146240,211.111115,-360.000000,-420.000000,10.080504,18.760939,4.060203,285
0.000000,0.000000,1055.155884,213.333328,-348.888885,-435.000000,9.380469,17.010851,6.650332,286
23.980814,11.990407,1067.146240,213.333328,-355.555542,-430.000000,7.700385,18.410921,6.020301,287
0.000000,-23.980814,1055.155884,213.333328,-353.333344,-435.000000,5.040252,21.281065,4.340217,288
11.990407,0.000000,1067.146240,217.777771,-357.777771,-430.000000,2.730137,22.121107,3.570179,289
0.000000,-23.980814,1055.155884,215.555557,-348.888885,-435.000000,1.400070,24.011200,3.080154,290
35.971222,0.000000,1115.107910,213.333328,-360.000000,-430.000000,2.520126,25.061253,2.030102,291
95.923256,0.000000,1103.117432,213.333328,-348.888885,-435.000000,1.050053,21.351068,0.840042,292
131.894485,11.990407,1127.098267,211.111115,-355.555542,-430.000000,-2.240112,23.381168,-0.210010,293
95.923256,0.000000,1079.136597,215.555557,-348.888885,-437.500000,-2.940147,25.691284,-0.070004,294
107.913666,35.971222,1115.107910,213.333328,-351.111115,-437.500000,-4.900245,27.861393,0.700035,295
83.932854,35.971222,1115.107910,213.333328,-348.888885,-437.500000,-10.500525,28.351418,3.080154,296
0.000000,23.980814,1079.136597,213.333328,-348.888885,-435.000000,-14.910746,27.861393,4.340217,297
-59.952034,0.000000,1067.146240,213.333328,-344.444458,-440.000000,-17.290865,25.061253,5.320266,298
-47.961628,-71.942444,959.232544,213.333328,-353.333344,-437.500000,-18.480925,19.740988,6.370318,299
-95.923256,0.000000,947.242188,208.888885,-342.222229,-440.000000,-22.541128,13.160658,5.460273,300
-167.865707,-23.980814,815.347656,208.888885,-348.888885,-437.500000,-25.621281,9.730487,5.180259,301
-95.923256,-23.980814,863.309326,211.111115,-346.666656,-442.500000,-25.691284,9.310466,3.500175,302
-71.942444,-23.980814,839.328491,206.666672,-346.666656,-442.500000,-21.841093,11.270564,-0.770038,303
-47.961628,0.000000,863.309326,206.666672,-344.444458,-447.500000,-15.400770,17.850893,-5.950297,304
-35.971222,0.000000,827.338074,211.111115,-346.666656,-445.000000,-9.660483,26.951347,-7.490375,305
11.990407,35.971222,875.299744,206.666672,-344.444458,-447.500000,-6.580329,35.911797,-7.000350,306
0.000000,71.942444,983.213379,206.666672,-346.666656,-442.500000,-8.470424,41.792091,-5.320266,307
47.961628,-59.952034,1031.175049,208.888885,-335.555542,-450.000000,-14.000700,46.762337,-5.110256,308
23.980814,-23.980814,1103.117432,206.666672,-342.222229,-447.500000,-19.250963,48.442421,-8.470424,309
35.971222,-71.942444,1091.127075,204.444443,-333.333344,-450.000000,-18.900946,49.002449,-10.570529,310
71.942444,-23.980814,1055.155884,204.444443,-340.000000,-450.000000,-16.660833,49.002449,-10.780540,311
23.980814,-35.971222,1103.117432,211.111115,-333.333344,-455.000000,-13.020651,50.612530,-9.030452,312
23.980814,-47.961628,1079.136597,206.666672,-335.555542,-457.500000,-12.950647,49.702484,-6.720336,313
35.971222,-47.961628,1043.165405,204.444443,-326.666656,-460.000000,-14.000700,48.582428,-4.830242,314
71.942444,-23.980814,1079.136597,202.222229,-328.888885,-457.500000,-16.940847,44.872246,-3.850193,315
35.971222,-59.952034,1091.127075,204.444443,-322.222229,-457.500000,-22.471125,34.861744,-5.180259,316
23.980814,-71.942444,1127.098267,202.222229,-328.888885,-460.000000,-27.021351,27.231361,-8.330417,317
0.000000,-95.923256,1091.127075,202.222229,-322.222229,-465.000000,-31.501575,21.771090,-12.460623,318
-47.961628,-107.913666,1079.136597,202.222229,-328.888885,-462.500000,-34.651733,10.290515,-14.000700,319
0.000000,-47.961628,1031.175049,200.000000,-324.444458,-465.000000,-35.631783,-3.220161,-15.750788,320
-11.990407,-47.961628,1031.175049,200.000000,-324.444458,-462.500000,-35.001751,-7.910396,-15.260763,321
0.000000,-47.961628,1007.194214,197.777771,-322.222229,-470.000000,-32.831642,-4.130207,-12.180609,322
-35.971222,-47.961628,1019.184631,195.555557,-328.888885,-465.000000,-31.291565,-0.910046,-8.750438,323
-23.980814,-47.961628,1007.194214,197.777771,-320.000000,-470.000000,-31.711586,1.890095,-7.350368,324
-35.971222,-47.961628,1031.175049,195.555557,-328.888885,-467.500000,-35.421772,2.380119,-7.770389,325
-47.961628,-47.961628,1079.136597,191.111115,-322.222229,-470.000000,-39.972000,-0.070004,-8.750438,326
-23.980814,-71.942444,1055.155884,191.111115,-328.888885,-467.500000,-41.442074,-2.590130,-7.350368,327
0.000000,-59.952034,1031.175049,191.111115,-328.888885,-472.500000,-42.422123,-8.050403,-5.320266,328
0.000000,-83.932854,1007.194214,188.888885,-331.111115,-470.000000,-41.302067,-13.020651,-2.590130,329
71.942444,-71.942444,935.251770,184.444443,-326.666656,-470.000000,-38.221912,-17.150858,-0.770038,330
35.971222,-35.971222,995.203796,184.444443,-335.555542,-470.000000,-33.111656,-18.200911,1.330067,331
71.942444,-47.961628,959.232544,184.444443,-328.888885,-475.000000,-29.401470,-15.470774,1.610080,332
59.952034,-23.980814,947.242188,182.222229,-333.333344,-470.000000,-25.411270,-9.100455,0.910046,333
119.904068,-23.980814,935.251770,182.222229,-333.333344,-477.500000,-21.911097,1.050053,-1.610080,334
71.942444,-23.980814,935.251770,177.777771,-333.333344,-472.500000,-19.530977,12.390619,-3.220161,335
95.923256,-23.980814,1007.194214,182.222229,-328.888885,-475.000000,-19.040953,20.931047,-3.710186,336
71.942444,-11.990407,995.203796,177.777771,-331.111115,-477.500000,-20.651033,28.281414,-4.410221,337
95.923256,-47.961628,959.232544,180.000000,-324.444458,-482.500000,-21.841093,35.561779,-4.760238,338
59.952034,-11.990407,971.222961,177.777771,-326.666656,-475.000000,-21.841093,39.621983,-5.530277,339
167.865707,-95.923256,1031.175049,175.555557,-322.222229,-482.500000,-22.611132,47.672382,-6.300315,340
47.961628,-59.952034,1007.194214,173.333328,-326.666656,-482.500000,-26.111305,57.612881,-8.610431,341
95.923256,-119.904068,1031.175049,180.000000,-315.555542,-487.500000,-29.821491,67.063354,-12.110605,342
95.923256,-131.894485,1031.175049,173.333328,-320.000000,-482.500000,-34.021702,76.443825,-16.170809,343
95.923256,-71.942444,1055.155884,171.111115,-315.555542,-492.500000,-36.821842,86.874344,-19.110956,344
131.894485,-95.923256,1031.175049,173.333328,-311.111115,-492.500000,-36.891846,99.544975,-20.511026,345
167.865707,-119.904068,983.213379,164.444443,-297.777771,-492.500000,-35.351768,113.545677,-21.631083,346
143.884888,-119.904068,971.222961,168.888885,-302.222229,-497.500000,-32.271614,129.086456,-21.211061,347
143.884888,-71.942444,983.213379,168.888885,-288.888885,-500.000000,-26.321316,141.617081,-22.401121,348
395.683441,-623.501160,959.232544,164.444443,-291.111115,-500.000000,-20.021002,151.487579,-26.181309,349
0.000000,-47.961628,1007.194214,168.888885,-277.777771,-507.500000,1.050053,147.217361,-42.632133,350
47.961628,-71.942444,1055.155884,166.666672,-282.222229,-502.500000,-0.770038,151.697586,-28.841442,351
47.961628,-23.980814,959.232544,171.111115,-266.666656,-510.000000,-7.350368,165.908295,-24.851242,352
71.942444,-119.904068,995.203796,164.444443,-262.222229,-510.000000,-12.950647,175.848801,-14.840742,353
23.980814,-167.865707,959.232544,171.111115,-257.777771,-512.500000,-9.030452,181.869095,-7.420371,354
23.980814,-191.846512,947.242188,164.444443,-246.666672,-515.000000,-4.620231,183.199158,-3.570179,355
71.942444,-215.827332,959.232544,168.888885,-233.333328,-520.000000,-3.220161,180.889053,-1.540077,356
107.913666,-227.817734,1007.194214,164.444443,-235.555557,-515.000000,-7.840392,175.988800,-0.490025,357
143.884888,-239.808136,1007.194214,166.666672,-224.444443,-522.500000,-15.120756,170.248520,1.470073,358
95.923256,-263.788971,1019.184631,162.222229,-224.444443,-520.000000,-25.551277,165.908295,0.140007,359
95.923256,-215.827332,1007.194214,164.444443,-208.888885,-525.000000,-38.361919,163.808197,-2.590130,360
83.932854,-275.779358,995.203796,164.444443,-204.444443,-525.000000,-46.622330,160.658035,-5.950297,361
119.904068,-335.731415,911.270935,157.777771,-197.777771,-527.500000,-51.662582,156.877838,-9.310466,362
119.904068,-323.740997,947.242188,155.555557,-191.111115,-530.000000,-56.352818,153.587677,-12.460623,363
191.846512,-287.769775,911.270935,157.777771,-182.222229,-537.500000,-58.242912,153.307663,-14.210711,364
167.865707,-287.769775,935.251770,148.888885,-177.777771,-535.000000,-60.273014,154.217712,-16.240812,365
119.904068,-359.712219,911.270935,151.111115,-164.444443,-540.000000,-56.562828,159.817993,-17.010851,366
143.884888,-359.712219,935.251770,146.666672,-164.444443,-535.000000,-46.622330,162.478119,-15.820791,367
167.865707,-407.673828,935.251770,148.888885,-155.555557,-540.000000,-45.152260,165.978302,-17.010851,368
191.846512,-359.712219,851.318909,142.222229,-146.666672,-540.000000,-47.462372,168.428421,-19.950998,369
215.827332,-359.712219,863.309326,137.777771,-140.000000,-537.500000,-47.952396,170.948547,-24.221210,370
179.856110,-419.664246,815.347656,137.777771,-126.666664,-540.000000,-44.382221,171.718582,-30.241512,371
167.865707,-383.693024,791.366882,137.777771,-120.000000,-547.500000,-42.492126,173.118652,-36.121807,372
191.846512,-419.664246,851.318909,133.333328,-117.777779,-537.500000,-43.612183,176.968857,-42.352119,373
215.827332,-455.635468,839.328491,131.111115,-102.222221,-542.500000,-45.572281,176.758835,-49.492474,374
227.817734,-491.606689,899.280518,126.666664,-102.222221,-540.000000,-56.142807,174.588730,-56.282814,375
239.808136,-515.587524,899.280518,128.888885,-86.666664,-547.500000,-71.823593,172.558624,-65.453270,376
239.808136,-527.577942,887.290100,124.444443,-82.222221,-542.500000,-79.243965,172.558624,-69.303467,377
203.836914,-527.577942,911.270935,115.555557,-75.555557,-545.000000,-91.984604,174.938751,-74.133705,378
191.846512,-503.597107,911.270935,111.111115,-64.444443,-542.500000,-94.714737,178.158905,-73.433670,379
167.865707,-431.654663,791.366882,108.888885,-53.333332,-545.000000,-93.594681,177.738892,-65.733284,380
143.884888,-383.693024,671.462830,100.000000,-51.111111,-542.500000,-83.094154,171.928604,-53.622681,381
143.884888,-395.683441,575.539551,100.000000,-40.000000,-542.500000,-72.453621,171.578583,-39.901997,382
143.884888,-359.712219,551.558716,97.777779,-40.000000,-542.500000,-59.502975,173.958694,-28.771439,383
143.884888,-383.693024,527.577942,95.555557,-24.444445,-545.000000,-44.452225,176.268814,-18.900946,384
143.884888,-383.693024,515.587524,93.333336,-24.444445,-537.500000,-35.841793,179.698990,-13.230661,385
191.846512,-395.683441,479.616272,91.111115,-13.333333,-542.500000,-32.831642,180.259018,-9.730487,386
215.827332,-455.635468,527.577942,88.888885,2.222222,-532.500000,-31.921597,177.738892,-7.840392,387
215.827332,-455.635468,599.520386,91.111115,11.111111,-535.000000,-34.371719,173.258667,-9.100455,388
239.808136,-503.597107,623.501160,82.222221,15.555555,-532.500000,-38.291916,175.148758,-8.890445,389
299.760193,-527.577942,623.501160,86.666664,26.666666,-532.500000,-44.802242,173.258667,-8.330417,390
383.693024,-551.558716,647.481995,77.777779,26.666666,-527.500000,-48.932446,162.828140,-9.380469,391
383.693024,-599.520386,695.443604,77.777779,33.333332,-532.500000,-56.002800,150.857544,-13.510675,392
383.693024,-575.539551,695.443604,80.000000,37.777779,-522.500000,-62.513126,137.136856,-18.690935,393
335.731415,-575.539551,695.443604,73.333336,48.888889,-525.000000,-65.383270,125.096252,-22.331118,394
383.693024,-599.520386,623.501160,71.111115,51.111111,-522.500000,-67.483376,120.406021,-24.711235,395
359.712219,-611.510742,587.529968,64.444443,64.444443,-522.500000,-64.333214,117.745888,-24.431221,396
359.712219,-599.520386,575.539551,62.222221,60.000000,-517.500000,-57.612881,117.815895,-22.191111,397
359.712219,-599.520386,539.568298,62.222221,71.111115,-522.500000,-49.072453,119.986000,-19.880995,398
299.760193,-551.558716,503.597107,57.777779,71.111115,-512.500000,-40.462025,122.156113,-20.651033,399
335.731415,-575.539551,479.616272,55.555557,86.666664,-517.500000,-33.811691,124.886246,-20.581030,400
371.702637,-575.539551,479.616272,55.555557,80.000000,-510.000000,-28.981449,126.916344,-24.781239,401
287.769775,-551.558716,479.616272,51.111111,91.111115,-512.500000,-27.091354,131.816589,-25.411270,402
323.740997,-611.510742,467.625885,53.333332,95.555557,-507.500000,-21.771090,136.856842,-26.321316,403
239.808136,-551.558716,503.597107,48.888889,111.111115,-507.500000,-13.860693,141.687088,-28.141407,404
275.779358,-659.472412,479.616272,48.888889,108.888885,-500.000000,-5.180259,143.087158,-28.841442,405
263.788971,-671.462830,455.635468,53.333332,117.777779,-500.000000,4.200210,141.057053,-26.951347,406
299.760193,-647.481995,491.606689,46.666668,117.777779,-492.500000,10.080504,137.486877,-25.201260,407
311.750580,-623.501160,491.606689,48.888889,133.333328,-497.500000,13.160658,133.426666,-21.071054,408
359.712219,-587.529968,443.645050,48.888889,131.111115,-490.000000,12.040602,130.836548,-15.890795,409
359.712219,-551.558716,431.654663,46.666668,137.777771,-487.500000,9.030452,127.756386,-12.600630,410
371.702637,-503.597107,419.664246,48.888889,140.000000,-485.000000,2.030102,125.026253,-9.800490,411
407.673828,-623.501160,455.635468,51.111111,153.333328,-485.000000,-5.110256,121.806091,-7.420371,412
383.693024,-623.501160,431.654663,46.666668,153.333328,-475.000000,-10.150508,117.325867,-7.700385,413
359.712219,-647.481995,407.673828,48.888889,160.000000,-477.500000,-12.180609,115.575783,-9.800490,414
359.712219,-635.491577,395.683441,42.222221,162.222229,-470.000000,-15.750788,113.685684,-12.740637,415
359.712219,-671.462830,431.654663,44.444443,173.333328,-472.500000,-17.710886,112.705635,-8.190410,416
371.702637,-671.462830,383.693024,42.222221,166.666672,-465.000000,-15.470774,112.495628,-6.790339,417
359.712219,-743.405273,407.673828,44.444443,175.555557,-470.000000,-9.940497,112.145607,-4.550228,418
371.702637,-755.395630,395.683441,44.444443,180.000000,-465.000000,-3.080154,111.165558,-2.030102,419
479.616272,-959.232544,335.731415,44.444443,188.888885,-460.000000,7.070354,108.855446,-2.030102,420
431.654663,-731.414856,323.740997,44.444443,188.888885,-452.500000,14.700735,105.775291,0.070004,421
431.654663,-707.434021,335.731415,44.444443,195.555557,-452.500000,18.760939,101.225060,3.430171,422
407.673828,-647.481995,239.808136,44.444443,195.555557,-445.000000,17.080854,100.875046,-0.840042,423
419.664246,-659.472412,287.769775,44.444443,204.444443,-452.500000,14.840742,98.004898,-2.590130,424
407.673828,-695.443604,263.788971,46.666668,202.222229,-445.000000,12.110605,95.834793,-3.850193,425
419.664246,-683.453186,227.817734,44.444443,206.666672,-447.500000,11.270564,94.854744,-5.040252,426
431.654663,-719.424438,263.788971,46.666668,213.333328,-440.000000,11.130557,92.404625,-5.950297,427
407.673828,-695.443604,263.788971,48.888889,222.222229,-440.000000,12.460623,90.024506,-8.330417,428
383.693024,-719.424438,191.846512,48.888889,217.777771,-430.000000,14.210711,89.954498,-11.270564,429
383.693024,-791.366882,203.836914,51.111111,226.666672,-432.500000,19.320967,91.564583,-12.810640,430
383.693024,-815.347656,227.817734,48.888889,222.222229,-425.000000,26.251312,95.414772,-12.880644,431
383.693024,-803.357300,191.846512,51.111111,231.111115,-427.500000,35.771790,99.824989,-9.870494,432
383.693024,-815.347656,239.808136,53.333332,228.888885,-422.500000,45.852295,105.285263,-4.970249,433
335.731415,-779.376465,215.827332,48.888889,237.777771,-422.500000,54.322716,109.835495,2.870144,434
335.731415,-791.366882,191.846512,53.333332,242.222229,-417.500000,61.533077,114.455727,10.080504,435
359.712219,-743.405273,167.865707,60.000000,248.888885,-410.000000,72.103607,117.115860,6.370318,436
335.731415,-791.366882,215.827332,57.777779,251.111115,-402.500000,69.233459,125.796288,19.040953,437
347.721802,-815.347656,191.846512,62.222221,253.333328,-405.000000,66.083305,131.256561,18.480925,438
335.731415,-863.309326,191.846512,66.666664,260.000000,-392.500000,65.243263,132.026596,17.990900,439
347.721802,-851.318909,203.836914,68.888885,266.666656,-392.500000,61.953098,133.076660,20.301016,440
359.712219,-791.366882,191.846512,68.888885,260.000000,-385.000000,61.183060,130.346512,20.091005,441
371.702637,-839.328491,215.827332,71.111115,275.555542,-387.500000,59.502975,126.636330,22.121107,442
359.712219,-791.366882,215.827332,75.555557,271.111115,-377.500000,56.842842,122.226112,24.221210,443
395.683441,-839.328491,215.827332,80.000000,286.666656,-377.500000,55.092754,118.025902,24.361217,444
419.664246,-923.261353,179.856110,80.000000,275.555542,-370.000000,56.072803,111.935600,22.401121,445
359.712219,-839.328491,119.904068,86.666664,286.666656,-370.000000,57.332867,107.735390,21.421072,446
371.702637,-815.347656,155.875290,86.666664,282.222229,-357.500000,54.392719,106.055305,22.541128,447
359.712219,-911.270935,167.865707,88.888885,293.333344,-360.000000,52.222610,102.345116,19.810991,448
383.693024,-875.299744,155.875290,86.666664,288.888885,-352.500000,52.642632,97.934898,18.480925,449
383.693024,-839.328491,119.904068,88.888885,300.000000,-347.500000,51.732586,92.334618,19.460974,450
383.693024,-815.347656,95.923256,93.333336,297.777771,-350.000000,50.822540,90.444527,16.870844,451
407.673828,-863.309326,-23.980814,91.111115,302.222229,-345.000000,50.192509,87.924400,15.820791,452
395.683441,-839.328491,35.971222,97.777779,297.777771,-335.000000,53.972698,84.774239,13.580679,453
359.712219,-839.328491,23.980814,104.444443,304.444458,-335.000000,60.973049,79.944000,14.560728,454
359.712219,-839.328491,0.000000,100.000000,304.444458,-327.500000,69.723488,79.313965,19.460974,455
383.693024,-815.347656,-23.980814,111.111115,311.111115,-332.500000,80.014000,80.504028,22.331118,456
395.683441,-839.328491,-11.990407,108.888885,304.444458,-325.000000,88.834442,82.464127,24.991249,457
311.750580,-791.366882,47.961628,113.333336,317.777771,-325.000000,95.484772,86.034302,24.011200,458
347.721802,-815.347656,35.971222,115.555557,313.333344,-317.500000,100.735039,90.654533,23.871193,459
287.769775,-839.328491,0.000000,113.333336,317.777771,-317.500000,104.515228,95.624779,25.761288,460
335.731415,-851.318909,23.980814,122.222221,315.555542,-305.000000,108.715439,99.614983,30.591530,461
359.712219,-911.270935,-23.980814,131.111115,326.666656,-305.000000,112.285614,104.865242,29.891495,462
347.721802,-899.280518,47.961628,128.888885,320.000000,-292.500000,114.315720,107.315369,28.841442,463
359.712219,-887.290100,0.000000,133.333328,328.888885,-297.500000,115.435776,107.595383,29.191460,464
335.731415,-875.299744,11.990407,137.777771,324.444458,-280.000000,120.966049,106.475327,33.951698,465
311.750580,-863.309326,23.980814,144.444443,333.333344,-282.500000,125.936295,108.225410,39.411972,466
371.702637,-851.318909,47.961628,146.666672,328.888885,-277.500000,129.436478,109.415474,45.362270,467
431.654663,-911.270935,71.942444,146.666672,331.111115,-272.500000,131.676590,110.185509,49.212460,468
395.683441,-887.290100,23.980814,157.777771,331.111115,-260.000000,131.746582,109.205460,51.452572,469
431.654663,-863.309326,47.961628,164.444443,342.222229,-260.000000,132.026596,109.275467,51.732586,470
467.625885,-839.328491,95.923256,166.666672,340.000000,-250.000000,130.976547,108.505424,52.222610,471
455.635468,-863.309326,71.942444,173.333328,342.222229,-250.000000,130.346512,106.055305,51.032551,472
503.597107,-947.242188,59.952034,173.333328,337.777771,-237.500000,134.196716,103.115158,50.962547,473
431.654663,-791.366882,95.923256,180.000000,344.444458,-240.000000,140.567032,94.714737,51.382568,474
443.645050,-839.328491,71.942444,184.444443,344.444458,-230.000000,145.747284,96.744835,53.902695,475
479.616272,-959.232544,0.000000,184.444443,344.444458,-225.000000,147.077362,97.934898,55.302765,476
371.702637,-827.338074,-11.990407,195.555557,342.222229,-212.500000,152.047607,93.594681,54.462723,477
335.731415,-911.270935,23.980814,202.222229,348.888885,-210.000000,151.977600,99.054955,54.462723,478
383.693024,-875.299744,0.000000,202.222229,344.444458,-200.000000,153.587677,105.775291,52.852642,479
347.721802,-851.318909,-119.904068,208.888885,346.666656,-200.000000,157.507874,111.165558,53.272663,480
311.750580,-935.251770,47.961628,213.333328,344.444458,-187.500000,161.008057,118.095909,53.482674,481
323.740997,-911.270935,47.961628,215.555557,353.333344,-185.000000,161.988098,124.116211,54.672733,482
335.731415,-863.309326,-23.980814,220.000000,346.666656,-170.000000,162.408127,128.876450,54.952747,483
323.740997,-911.270935,-35.971222,222.222229,351.111115,-172.500000,161.918091,133.216660,55.792789,484
359.712219,-911.270935,0.000000,226.666672,346.666656,-155.000000,159.957993,138.396927,56.142807,485
275.779358,-875.299744,-35.971222,231.111115,353.333344,-145.000000,152.047607,145.257263,50.892544,486
311.750580,-959.232544,-71.942444,233.333328,344.444458,-137.500000,144.347214,153.517685,47.952396,487
299.760193,-935.251770,-107.913666,240.000000,357.777771,-132.500000,143.787186,154.987747,48.442421,488
359.712219,-911.270935,-95.923256,237.777771,346.666656,-120.000000,144.627228,155.897797,48.862442,489
299.760193,-911.270935,-131.894485,242.222229,351.111115,-115.000000,146.727341,155.827789,50.962547,490
335.731415,-935.251770,-167.865707,244.444443,348.888885,-102.500000,149.177460,153.657684,52.712635,491
299.760193,-887.290100,-143.884888,246.666672,348.888885,-92.500000,150.507523,151.907593,54.812740,492
263.788971,-959.232544,-167.865707,253.333328,346.666656,-77.500000,150.227509,151.487579,56.842842,493
251.798553,-935.251770,-179.856110,257.777771,353.333344,-75.000000,149.807495,150.507523,59.782990,494
191.846512,-935.251770,-191.846512,260.000000,344.444458,-65.000000,151.207565,149.317474,63.283165,495
203.836914,-899.280518,-227.817734,257.777771,348.888885,-60.000000,154.217712,148.337418,68.393417,496
215.827332,-959.232544,-215.827332,262.222229,346.666656,-47.500000,157.787888,146.867340,73.993698,497
227.817734,-935.251770,-191.846512,266.666656,346.666656,-40.000000,160.378021,145.187256,76.653831,498
215.827332,-959.232544,-191.846512,266.666656,342.222229,-30.000000,160.168015,142.457123,79.523979,499
215.827332,-935.251770,-203.836914,268.888885,346.666656,-27.500000,158.837936,138.746933,83.164162,500
215.827332,-887.290100,-191.846512,273.333344,333.333344,-12.500000,158.137909,136.576828,86.944351,501
227.817734,-827.338074,-203.836914,280.000000,337.777771,0.000000,157.717880,129.576477,89.394470,502
275.779358,-899.280518,-251.798553,280.000000,331.111115,7.500000,158.907944,122.086105,108.715439,503
191.846512,-959.232544,-239.808136,284.444458,337.777771,12.500000,167.728394,103.675186,115.015755,504
239.808136,-923.261353,-251.798553,286.666656,324.444458,22.500000,166.468323,95.414772,105.915298,505
191.846512,-1007.194214,-287.769775,293.333344,328.888885,25.000000,156.387817,95.414772,103.045151,506
179.856110,-959.232544,-323.740997,291.111115,322.222229,35.000000,146.797348,92.054604,100.875046,507
95.923256,-959.232544,-335.731415,295.555542,324.444458,40.000000,139.376968,89.534477,100.945045,508
59.952034,-1007.194214,-347.721802,302.222229,320.000000,40.000000,129.016449,86.384323,101.715088,509
47.961628,-1007.194214,-359.712219,304.444458,322.222229,50.000000,115.155762,82.464127,93.804688,510
-95.923256,-647.481995,-227.817734,300.000000,311.111115,62.500000,102.065102,79.523979,92.754639,511
167.865707,-1079.136597,-479.616272,308.888885,311.111115,60.000000,94.224709,72.103607,113.825691,512
155.875290,-1007.194214,-455.635468,308.888885,304.444458,67.500000,97.864891,63.213161,97.934898,513
167.865707,-935.251770,-479.616272,313.333344,306.666656,70.000000,95.904793,56.702835,96.954849,514
143.884888,-959.232544,-479.616272,313.333344,297.777771,75.000000,88.834442,52.572628,99.334969,515
191.846512,-911.270935,-527.577942,317.777771,297.777771,75.000000,82.954147,47.322365,100.735039,516
95.923256,-887.290100,-527.577942,317.777771,297.777771,82.500000,79.733986,43.612183,103.745186,517
95.923256,-863.309326,-479.616272,328.888885,293.333344,80.000000,77.843895,40.602032,110.465523,518
143.884888,-923.261353,-515.587524,326.666656,284.444458,92.500000,77.563881,36.891846,116.065804,519
143.884888,-863.309326,-479.616272,331.111115,284.444458,85.000000,77.493874,35.001751,118.725937,520
143.884888,-911.270935,-467.625885,328.888885,282.222229,95.000000,71.753586,33.881695,122.646133,521
95.923256,-887.290100,-455.635468,337.777771,280.000000,92.500000,67.273361,33.461674,123.556183,522
107.913666,-851.318909,-455.635468,337.777771,273.333344,100.000000,61.883095,32.901646,124.466225,523
119.904068,-887.290100,-527.577942,344.444458,268.888885,95.000000,58.172909,33.321667,125.516273,524
119.904068,-851.318909,-527.577942,344.444458,266.666656,102.500000,57.122856,34.021702,127.616379,525
71.942444,-839.328491,-455.635468,353.333344,264.444458,102.500000,56.772839,34.231712,130.206512,526
95.923256,-827.338074,-515.587524,351.111115,253.333328,110.000000,56.632832,34.721737,131.816589,527
47.961628,-887.290100,-527.577942,357.777771,257.777771,107.500000,58.522926,34.511726,133.776688,528
71.942444,-851.318909,-527.577942,362.222229,246.666672,117.500000,60.973049,33.741688,136.646835,529
71.942444,-839.328491,-623.501160,364.444458,248.888885,110.000000,66.503326,34.161709,139.796997,530
23.980814,-815.347656,-599.520386,368.888885,237.777771,120.000000,71.753586,37.171860,143.227158,531
0.000000,-863.309326,-623.501160,368.888885,237.777771,117.500000,75.463776,43.402172,145.117264,532
35.971222,-815.347656,-659.472412,373.333344,235.555557,125.000000,82.604134,49.492474,144.627228,533
47.961628,-767.386047,-623.501160,382.222229,228.888885,132.500000,86.454323,56.912846,144.907242,534
71.942444,-731.414856,-599.520386,382.222229,215.555557,135.000000,91.984604,62.163109,147.917404,535
23.980814,-719.424438,-671.462830,386.666656,213.333328,137.500000,106.125305,63.213161,155.757782,536
95.923256,-719.424438,-611.510742,386.666656,202.222229,145.000000,112.775642,66.503326,159.327972,537
35.971222,-683.453186,-539.568298,393.333344,206.666672,147.500000,110.535530,67.413368,159.677979,538
-23.980814,-767.386047,-503.597107,391.111115,193.333328,155.000000,106.335320,68.183411,160.028000,539
-59.952034,-779.376465,-515.587524,393.333344,200.000000,155.000000,96.464821,64.403221,162.478119,540
-191.846512,-839.328491,-551.558716,400.000000,186.666672,157.500000,81.344070,64.053200,168.568436,541
-251.798553,-875.299744,-503.597107,404.444458,177.777771,162.500000,59.432972,62.793140,164.368225,542
-335.731415,-959.232544,-503.597107,408.888885,168.888885,172.500000,43.962200,54.672733,168.008408,543
-299.760193,-983.213379,-503.597107,411.111115,166.666672,170.000000,33.671684,41.932098,171.648590,544
-239.808136,-935.251770,-575.539551,413.333344,155.555557,175.000000,26.461323,26.391319,174.308716,545
-215.827332,-935.251770,-563.549133,420.000000,157.777771,172.500000,21.561079,16.100805,177.178864,546
-191.846512,-983.213379,-527.577942,422.222229,142.222229,175.000000,14.420721,10.080504,174.518723,547
-191.846512,-983.213379,-539.568298,428.888885,142.222229,167.500000,7.630382,1.190060,168.778442,548
-191.846512,-863.309326,-575.539551,428.888885,137.777771,170.000000,0.910046,-4.760238,165.628281,549
-179.856110,-839.328491,-599.520386,442.222229,131.111115,170.000000,-0.140007,-3.990200,167.168365,550
-215.827332,-815.347656,-647.481995,444.444458,115.555557,172.500000,1.330067,-2.940147,169.058456,551
-203.836914,-815.347656,-659.472412,446.666656,117.777779,165.000000,9.450473,-1.610080,172.138611,552
-239.808136,-815.347656,-695.443604,448.888885,111.111115,172.500000,22.331118,3.010150,175.638779,553
-215.827332,-791.366882,-683.453186,453.333344,104.444443,170.000000,32.761639,12.250612,177.108856,554
-215.827332,-767.386047,-695.443604,451.111115,95.555557,177.500000,39.831993,25.271263,175.148758,555
-227.817734,-767.386047,-671.462830,457.777771,95.555557,172.500000,41.582081,35.701786,171.298569,556
-191.846512,-719.424438,-623.501160,460.000000,86.666664,177.500000,40.882046,40.882046,167.378372,557
-191.846512,-683.453186,-611.510742,462.222229,73.333336,177.500000,39.131958,43.192162,162.618134,558
-191.846512,-659.472412,-587.529968,466.666656,62.222221,187.500000,36.751839,43.122158,158.977951,559
-191.846512,-635.491577,-563.549133,471.111115,64.444443,180.000000,34.231712,40.042004,158.347916,560
-191.846512,-647.481995,-503.597107,468.888885,48.888889,187.500000,31.991600,35.491776,160.868042,561
-215.827332,-611.510742,-539.568298,473.333344,53.333332,180.000000,27.511375,33.251663,165.138260,562
-287.769775,-623.501160,-599.520386,473.333344,35.555557,187.500000,20.511026,32.691635,170.178513,563
-335.731415,-611.510742,-527.577942,475.555542,35.555557,182.500000,16.030802,30.241512,172.838638,564
-359.712219,-599.520386,-479.616272,473.333344,28.888889,187.500000,5.390270,25.761288,178.368927,565
-515.587524,-647.481995,-515.587524,482.222229,22.222221,185.000000,-3.500175,17.360868,188.449417,566
-575.539551,-719.424438,-647.481995,486.666656,4.444445,182.500000,-17.640882,10.780540,193.699692,567
-683.453186,-767.386047,-647.481995,493.333344,2.222222,182.500000,-32.901646,11.340568,198.319916,568
-767.386047,-839.328491,-695.443604,493.333344,-13.333333,182.500000,-38.081905,9.240462,201.120056,569
-755.395630,-863.309326,-695.443604,497.777771,-11.111111,180.000000,-39.131958,4.060203,203.150162,570
-767.386047,-839.328491,-719.424438,497.777771,-26.666666,182.500000,-38.851944,-2.730137,202.590134,571
-755.395630,-851.318909,-695.443604,504.444458,-31.111111,172.500000,-36.891846,-7.490375,201.330063,572
-767.386047,-803.357300,-719.424438,502.222229,-37.777779,175.000000,-32.901646,-10.220511,200.910049,573
-719.424438,-767.386047,-719.424438,506.666656,-44.444443,170.000000,-24.851242,-11.410571,201.120056,574
-671.462830,-743.405273,-719.424438,511.111115,-62.222221,170.000000,-14.840742,-11.200561,202.240112,575
-599.520386,-647.481995,-719.424438,515.555542,-66.666664,167.500000,-10.570529,-11.060554,202.520126,576
-587.529968,-623.501160,-659.472412,513.333313,-82.222221,172.500000,-2.240112,-10.640532,204.340225,577
-551.558716,-551.558716,-551.558716,517.777771,-82.222221,167.500000,3.500175,-12.320616,203.920197,578
-527.577942,-539.568298,-563.549133,515.555542,-95.555557,172.500000,6.650332,-14.000700,201.890091,579
-503.597107,-551.558716,-503.597107,515.555542,-100.000000,165.000000,6.580329,-16.450823,199.579987,580
-491.606689,-527.577942,-515.587524,515.555542,-104.444443,170.000000,2.800140,-18.130907,197.969894,581
-479.616272,-503.597107,-503.597107,520.000000,-117.777779,167.500000,1.610080,-18.900946,198.459930,582
-503.597107,-467.625885,-563.549133,517.777771,-133.333328,170.000000,0.840042,-17.990900,201.400070,583
-527.577942,-431.654663,-503.597107,520.000000,-133.333328,165.000000,0.210010,-14.560728,203.710190,584
-503.597107,-431.654663,-479.616272,517.777771,-146.666672,170.000000,-2.590130,-12.600630,203.850189,585
-503.597107,-479.616272,-479.616272,517.777771,-146.666672,162.500000,-6.720336,-12.390619,202.520126,586
-539.568298,-407.673828,-503.597107,517.777771,-164.444443,170.000000,-7.910396,-12.950647,201.680084,587
-623.501160,-455.635468,-575.539551,522.222229,-166.666672,160.000000,-7.560378,-12.880644,199.019958,588
-623.501160,-407.673828,-611.510742,517.777771,-173.333328,170.000000,-7.140357,-12.040602,196.779846,589
-791.366882,-431.654663,-671.462830,517.777771,-184.444443,162.500000,-6.580329,-12.600630,191.459579,590
-731.414856,-431.654663,-587.529968,515.555542,-202.222229,162.500000,-7.910396,-13.020651,185.369278,591
-767.386047,-359.712219,-599.520386,517.777771,-204.444443,162.500000,-14.840742,-10.360518,177.178864,592
-731.414856,-359.712219,-575.539551,515.555542,-215.555557,165.000000,-25.271263,-5.740287,167.798386,593
-767.386047,-383.693024,-551.558716,517.777771,-213.333328,157.500000,-39.481976,-4.550228,160.168015,594
-755.395630,-371.702637,-527.577942,513.333313,-222.222229,157.500000,-56.142807,-6.230311,153.727692,595
-791.366882,-371.702637,-551.558716,515.555542,-228.888885,152.500000,-70.983551,-10.640532,149.597488,596
-863.309326,-287.769775,-575.539551,513.333313,-235.555557,155.000000,-82.604134,-18.060904,148.547424,597
-851.318909,-287.769775,-563.549133,517.777771,-242.222229,147.500000,-90.724541,-27.931396,150.507523,598
-887.290100,-287.769775,-575.539551,515.555542,-257.777771,147.500000,-95.624779,-34.371719,154.357727,599
-875.299744,-263.788971,-539.568298,515.555542,-251.111115,140.000000,-99.264961,-36.961849,157.927902,600
-887.290100,-215.827332,-527.577942,513.333313,-266.666656,135.000000,-100.385017,-38.571930,159.047958,601
-839.328491,-203.836914,-539.568298,515.555542,-262.222229,130.000000,-97.724884,-41.862095,164.018204,602
-767.386047,-143.884888,-575.539551,511.111115,-282.222229,135.000000,-85.614281,-44.102207,166.818344,603
-803.357300,-167.865707,-563.549133,511.111115,-280.000000,127.500000,-67.483376,-48.372417,171.158554,604
-767.386047,-23.980814,-527.577942,511.111115,-291.111115,127.500000,-53.552677,-50.122505,175.498779,605
-803.357300,-95.923256,-515.587524,511.111115,-293.333344,125.000000,-40.742039,-48.582428,181.449081,606
-803.357300,-167.865707,-527.577942,508.888885,-311.111115,127.500000,-28.561428,-46.622330,186.349319,607
-791.366882,-167.865707,-479.616272,504.444458,-313.333344,122.500000,-15.120756,-48.022400,189.149460,608
-791.366882,-143.884888,-407.673828,497.777771,-322.222229,127.500000,-4.900245,-50.962547,190.339523,609
-839.328491,-167.865707,-383.693024,497.777771,-320.000000,125.000000,4.060203,-55.022751,190.899551,610
-827.338074,-155.875290,-323.740997,488.888885,-331.111115,132.500000,5.530277,-61.533077,191.949600,611
-887.290100,-215.827332,-239.808136,491.111115,-333.333344,130.000000,4.550228,-74.833740,194.329712,612
-923.261353,-395.683441,-191.846512,484.444458,-348.888885,132.500000,5.740287,-84.844246,199.719986,613
-959.232544,-167.865707,-311.750580,480.000000,-346.666656,132.500000,16.100805,-107.735390,207.770386,614
-947.242188,-71.942444,-275.779358,477.777771,-353.333344,135.000000,4.690235,-118.445923,203.010147,615
-935.251770,-167.865707,-191.846512,473.333344,-357.777771,135.000000,-26.391319,-120.476028,187.749390,616
-911.270935,-347.721802,-143.884888,466.666656,-375.555542,142.500000,-36.401821,-130.906540,184.599228,617
-1055.155884,95.923256,-383.693024,464.444458,-368.888885,142.500000,-23.031153,-143.857193,188.729431,618
-983.213379,0.000000,-383.693024,460.000000,-380.000000,147.500000,-36.331818,-135.316772,181.869095,619
-983.213379,-95.923256,-407.673828,455.555542,-373.333344,142.500000,-47.322365,-127.126358,174.798737,620
-923.261353,-95.923256,-359.712219,451.111115,-388.888885,147.500000,-38.851944,-124.116211,181.519073,621
-935.251770,-95.923256,-503.597107,448.888885,-388.888885,145.000000,-19.040953,-116.205811,178.998947,622
-887.290100,-35.971222,-491.606689,446.666656,-391.111115,147.500000,-6.300315,-100.665031,176.128815,623
-935.251770,191.846512,-527.577942,440.000000,-397.777771,152.500000,5.320266,-77.423874,169.478470,624
-911.270935,143.884888,-563.549133,433.333344,-404.444458,152.500000,2.660133,-48.932446,159.747986,625
-911.270935,191.846512,-575.539551,431.111115,-404.444458,150.000000,-1.190060,-35.701786,155.967804,626
-839.328491,143.884888,-527.577942,426.666656,-417.777771,152.500000,-13.790689,-10.570529,143.927200,627
-815.347656,191.846512,-527.577942,426.666656,-413.333344,147.500000,-23.801189,8.120406,136.436829,628
-791.366882,119.904068,-491.606689,426.666656,-426.666656,152.500000,-28.071404,23.801189,131.046555,629
-839.328491,155.875290,-503.597107,422.222229,-424.444458,147.500000,-28.841442,37.451874,123.346169,630
-863.309326,215.827332,-479.616272,415.555542,-428.888885,147.500000,-29.681484,50.822540,119.285965,631
-887.290100,191.846512,-455.635468,413.333344,-437.777771,140.000000,-27.231361,59.292965,118.305916,632
-911.270935,215.827332,-407.673828,406.666656,-442.222229,142.500000,-25.131256,62.303116,117.045853,633
-947.242188,215.827332,-371.702637,406.666656,-446.666656,135.000000,-27.791389,60.273014,113.615685,634
-1007.194214,263.788971,-335.731415,404.444458,-455.555542,140.000000,-34.931747,51.242561,109.765488,635
-1019.184631,239.808136,-323.740997,402.222229,-455.555542,135.000000,-39.972000,38.011902,107.805389,636
-1055.155884,239.808136,-287.769775,400.000000,-462.222229,135.000000,-44.382221,23.591179,109.765488,637
-1031.175049,239.808136,-299.760193,395.555542,-460.000000,132.500000,-46.902344,17.150858,113.475677,638
-1127.098267,263.788971,-335.731415,391.111115,-464.444458,132.500000,-52.782639,4.760238,115.855797,639
-1127.098267,251.798553,-299.760193,393.333344,-468.888885,122.500000,-61.813091,-6.370318,118.655937,640
-1199.040771,215.827332,-335.731415,384.444458,-477.777771,127.500000,-73.503677,-14.210711,120.266014,641
-1187.050293,203.836914,-299.760193,391.111115,-475.555542,122.500000,-82.184113,-22.961149,120.966049,642
-1175.059937,191.846512,-335.731415,380.000000,-484.444458,127.500000,-86.034302,-28.771439,120.966049,643
-1151.079102,215.827332,-299.760193,384.444458,-480.000000,117.500000,-88.274414,-29.681484,119.986000,644
-1342.925659,239.808136,-407.673828,380.000000,-488.888885,122.500000,-93.524673,-27.721386,118.235916,645
-1187.050293,275.779358,-311.750580,377.777771,-484.444458,112.500000,-119.635986,-12.460623,123.066154,646
-1007.194214,239.808136,-215.827332,373.333344,-491.111115,112.500000,-120.826042,-18.270914,124.046204,647
-995.203796,239.808136,-263.788971,371.111115,-493.333344,107.500000,-123.976204,-29.051453,119.285965,648
-983.213379,335.731415,-287.769775,368.888885,-504.444458,112.500000,-133.636688,-32.551628,116.625832,649
-935.251770,359.712219,-299.760193,368.888885,-497.777771,102.500000,-139.096954,-31.711586,116.695839,650
-887.290100,407.673828,-239.808136,364.444458,-506.666656,102.500000,-141.337067,-31.781590,116.625832,651
-899.280518,407.673828,-275.779358,366.666656,-506.666656,97.500000,-146.097305,-31.501575,117.395874,652
-863.309326,455.635468,-275.779358,362.222229,-513.333313,97.500000,-151.627579,-32.761639,117.815895,653
-887.290100,479.616272,-287.769775,357.777771,-508.888885,90.000000,-156.877838,-34.301716,117.815895,654
-875.299744,467.625885,-299.760193,357.777771,-513.333313,87.500000,-156.737839,-35.841793,118.655937,655
-863.309326,503.597107,-263.788971,355.555542,-517.777771,85.000000,-151.907593,-38.781940,118.725937,656
-839.328491,515.587524,-287.769775,346.666656,-524.444458,85.000000,-145.467270,-44.032204,118.445923,657
-839.328491,551.558716,-263.788971,348.888885,-524.444458,80.000000,-140.357025,-47.322365,118.025902,658
-779.376465,515.587524,-263.788971,346.666656,-531.111084,80.000000,-136.576828,-46.342319,118.515930,659
-791.366882,479.616272,-191.846512,342.222229,-528.888916,80.000000,-132.446625,-46.762337,116.765839,660
-779.376465,467.625885,-191.846512,342.222229,-537.777771,77.500000,-130.696533,-47.742386,113.055656,661
-935.251770,503.597107,-143.884888,340.000000,-533.333313,77.500000,-127.966400,-48.372417,110.675537,662
-923.261353,491.606689,-143.884888,337.777771,-535.555542,75.000000,-126.426323,-48.862442,107.245361,663
-959.232544,455.635468,-47.961628,335.555542,-537.777771,75.000000,-122.926147,-52.432621,104.865242,664
-1067.146240,407.673828,-11.990407,331.111115,-544.444458,75.000000,-117.325867,-59.642982,102.275116,665
-1103.117432,455.635468,71.942444,328.888885,-542.222229,70.000000,-110.815544,-66.993347,99.334969,666
-1103.117432,467.625885,95.923256,324.444458,-544.444458,77.500000,-113.685684,-71.963600,100.105003,667
-1079.136597,359.712219,95.923256,326.666656,-542.222229,67.500000,-121.806091,-71.473572,102.975151,668
-1055.155884,431.654663,95.923256,320.000000,-551.111084,77.500000,-118.375923,-72.943649,94.224709,669
-959.232544,455.635468,95.923256,322.222229,-546.666687,70.000000,-122.716141,-76.023804,93.594681,670
-887.290100,443.645050,59.952034,320.000000,-546.666687,72.500000,-124.676231,-76.933846,94.154709,671
-767.386047,575.539551,0.000000,317.777771,-548.888916,72.500000,-117.745888,-73.573677,93.524673,672
-755.395630,575.539551,-47.961628,308.888885,-557.777771,72.500000,-107.245361,-68.323418,107.805389,673
-755.395630,563.549133,-35.971222,313.333344,-557.777771,67.500000,-102.695137,-59.922997,111.305565,674
-827.338074,647.481995,-95.923256,306.666656,-564.444458,77.500000,-111.165558,-55.722786,114.175713,675
-863.309326,743.405273,-215.827332,306.666656,-555.555542,70.000000,-107.385368,-45.852295,113.335670,676
-887.290100,719.424438,-179.856110,302.222229,-564.444458,70.000000,-107.945396,-36.401821,115.435776,677
-911.270935,719.424438,-239.808136,300.000000,-562.222229,67.500000,-104.375221,-22.331118,121.246063,678
-923.261353,683.453186,-227.817734,295.555542,-566.666687,67.500000,-89.324471,-5.250263,128.666428,679
-1031.175049,671.462830,-215.827332,291.111115,-566.666687,67.500000,-76.373817,9.940497,133.986694,680
-1031.175049,647.481995,-143.884888,284.444458,-575.555542,62.500000,-69.373466,19.950998,133.286667,681
-1103.117432,623.501160,0.000000,284.444458,-573.333313,57.500000,-67.133354,28.071404,128.806442,682
-1115.107910,623.501160,47.961628,280.000000,-580.000000,62.500000,-70.633530,29.681484,122.156113,683
-1127.098267,671.462830,71.942444,277.777771,-586.666687,55.000000,-81.694084,25.901295,116.065804,684
-1139.088623,647.481995,119.904068,271.111115,-586.666687,57.500000,-100.385017,20.581030,109.695488,685
-1127.098267,575.539551,167.865707,266.666656,-588.888916,52.500000,-121.246063,12.880644,102.485123,686
-1115.107910,599.520386,167.865707,264.444458,-588.888916,52.500000,-140.357025,3.850193,93.734688,687
-1067.146240,587.529968,167.865707,266.666656,-591.111084,42.500000,-149.317474,-0.630032,84.354218,688
-1007.194214,647.481995,95.923256,255.555557,-595.555542,42.500000,-168.358414,-4.200210,79.944000,689
-1007.194214,635.491577,167.865707,262.222229,-593.333313,37.500000,-185.579285,-1.960098,73.223663,690
-1007.194214,695.443604,71.942444,260.000000,-600.000000,40.000000,-197.059860,2.030102,69.443474,691
-863.309326,707.434021,155.875290,260.000000,-593.333313,25.000000,-210.570526,9.100455,73.013649,692
-767.386047,671.462830,263.788971,255.555557,-602.222229,27.500000,-214.840744,11.550578,75.113754,693
-707.434021,743.405273,227.817734,257.777771,-595.555542,17.500000,-222.681137,10.640532,74.203712,694
-695.443604,671.462830,311.750580,253.333328,-606.666687,27.500000,-236.331818,7.840392,78.543930,695
-671.462830,695.443604,299.760193,253.333328,-604.444458,15.000000,-256.422821,2.520126,75.953796,696
-695.443604,623.501160,407.673828,248.888885,-608.888916,10.000000,-275.953796,-6.370318,76.723839,697
-623.501160,635.491577,383.693024,248.888885,-606.666687,-2.500000,-287.644379,-19.460974,73.083656,698
-575.539551,575.539551,407.673828,244.444443,-611.111084,5.000000,-287.364380,-35.701786,70.913544,699
-575.539551,563.549133,383.693024,246.666672,-611.111084,-2.500000,-281.484070,-43.892197,68.043404,700
-743.405273,719.424438,431.654663,242.222229,-615.555542,-5.000000,-275.533783,-63.703186,63.773190,701
-755.395630,695.443604,443.645050,242.222229,-608.888916,-10.000000,-259.082947,-75.953796,62.443123,702
-335.731415,-71.942444,0.000000,242.222229,-615.555542,-5.000000,-235.141754,-87.154358,61.673084,703
-767.386047,563.549133,347.721802,240.000000,-611.111084,-5.000000,-195.799789,-103.045151,44.732239,704
-959.232544,839.328491,359.712219,237.777771,-613.333313,-2.500000,-193.209656,-99.894997,51.732586,705
-911.270935,719.424438,323.740997,240.000000,-615.555542,-7.500000,-191.669586,-87.434372,54.952747,706
-935.251770,623.501160,311.750580,233.333328,-617.777771,-2.500000,-193.279663,-67.903397,52.362617,707
-911.270935,611.510742,323.740997,235.555557,-613.333313,-7.500000,-190.759537,-44.452225,41.652084,708
-839.328491,599.520386,263.788971,233.333328,-615.555542,-2.500000,-182.849152,-23.801189,30.941547,709
-815.347656,635.491577,299.760193,233.333328,-613.333313,-12.500000,-170.948547,-11.130557,20.511026,710
-683.453186,683.453186,347.721802,233.333328,-615.555542,-10.000000,-157.297867,-0.140007,19.320967,711
-743.405273,623.501160,431.654663,233.333328,-617.777771,-12.500000,-149.737488,11.060554,13.860693,712
-647.481995,683.453186,431.654663,235.555557,-622.222229,-20.000000,-146.517334,14.140707,8.960448,713
-455.635468,671.462830,455.635468,237.777771,-615.555542,-22.500000,-137.766891,12.110605,4.830242,714
-503.597107,671.462830,467.625885,233.333328,-620.000000,-22.500000,-129.716492,9.800490,7.630382,715
-311.750580,671.462830,455.635468,233.333328,-615.555542,-30.000000,-130.416519,11.200561,8.260413,716
-395.683441,803.357300,479.616272,231.111115,-622.222229,-27.500000,-131.606583,0.980049,9.800490,717
-359.712219,767.386047,527.577942,235.555557,-615.555542,-32.500000,-139.446976,-3.010150,17.780890,718
-335.731415,755.395630,515.587524,233.333328,-622.222229,-27.500000,-153.587677,-10.290515,23.381168,719
-335.731415,791.366882,383.693024,226.666672,-620.000000,-35.000000,-175.218765,-15.750788,31.711586,720
-335.731415,779.376465,443.645050,228.888885,-622.222229,-37.500000,-198.319916,-21.281065,42.422123,721
-335.731415,791.366882,503.597107,228.888885,-617.777771,-40.000000,-223.031158,-26.881344,52.222610,722
-359.712219,791.366882,515.587524,222.222229,-626.666687,-42.500000,-248.302414,-28.351418,62.443123,723
-383.693024,743.405273,551.558716,224.444443,-624.444458,-47.500000,-275.253754,-27.861393,74.763741,724
-395.683441,743.405273,539.568298,215.555557,-628.888916,-45.000000,-304.515228,-26.321316,83.864197,725
-431.654663,695.443604,479.616272,215.555557,-624.444458,-57.500000,-317.885895,-22.401121,86.874344,726
-479.616272,671.462830,539.568298,211.111115,-631.111084,-55.000000,-335.806793,-21.841093,92.264618,727
-407.673828,671.462830,503.597107,208.888885,-631.111084,-60.000000,-340.637024,-19.670984,93.594681,728
-515.587524,731.414856,551.558716,202.222229,-628.888916,-65.000000,-333.076660,-17.150858,90.794540,729
-575.539551,671.462830,647.481995,195.555557,-626.666687,-72.500000,-318.655945,-9.590480,82.184113,730
-575.539551,647.481995,575.539551,191.111115,-633.333313,-70.000000,-297.304871,-6.160308,74.203712,731
-527.577942,719.424438,551.558716,193.333328,-631.111084,-80.000000,-266.083313,-1.820091,64.543228,732
-551.558716,719.424438,575.539551,188.888885,-635.555542,-82.500000,-232.271622,6.860343,63.913197,733
-431.654663,707.434021,623.501160,184.444443,-633.333313,-85.000000,-199.509979,16.310816,66.643333,734
-431.654663,695.443604,671.462830,175.555557,-637.777771,-85.000000,-170.878540,26.321316,68.253410,735
-347.721802,707.434021,683.453186,175.555557,-635.555542,-92.500000,-148.337418,34.931747,65.803291,736
-215.827332,695.443604,719.424438,175.555557,-637.777771,-92.500000,-129.436478,40.532028,65.383270,737
-191.846512,755.395630,695.443604,168.888885,-635.555542,-100.000000,-122.226112,43.402172,65.663284,738
-143.884888,767.386047,767.386047,162.222229,-640.000000,-95.000000,-114.735741,47.252361,68.463425,739
-83.932854,743.405273,743.405273,160.000000,-642.222229,-105.000000,-117.535881,51.802589,70.633530,740
-47.961628,743.405273,671.462830,155.555557,-642.222229,-107.500000,-127.896393,58.312916,72.873642,741
0.000000,707.434021,695.443604,155.555557,-640.000000,-112.500000,-142.037109,63.353168,73.153656,742
0.000000,731.414856,671.462830,148.888885,-646.666687,-112.500000,-154.917755,62.793140,73.853691,743
0.000000,683.453186,587.529968,146.666672,-640.000000,-120.000000,-165.348267,59.152958,74.483727,744
-23.980814,671.462830,575.539551,142.222229,-640.000000,-120.000000,-173.468674,56.072803,77.283867,745
-11.990407,671.462830,551.558716,133.333328,-637.777771,-132.500000,-181.589081,54.322716,79.453972,746
-71.942444,671.462830,551.558716,126.666664,-646.666687,-130.000000,-189.989502,52.642632,80.574028,747
-23.980814,635.491577,539.568298,124.444443,-637.777771,-137.500000,-195.099762,53.272663,79.033951,748
-119.904068,647.481995,599.520386,115.555557,-644.444458,-140.000000,-197.269867,56.632832,73.363670,749
-95.923256,635.491577,611.510742,115.555557,-642.222229,-145.000000,-196.779846,58.872944,69.023453,750
-119.904068,623.501160,647.481995,111.111115,-646.666687,-147.500000,-193.489670,65.523277,66.853340,751
-119.904068,671.462830,707.434021,104.444443,-637.777771,-155.000000,-186.769333,70.773537,63.703186,752
-95.923256,671.462830,791.366882,104.444443,-644.444458,-157.500000,-178.438919,74.133705,61.113056,753
-35.971222,695.443604,791.366882,97.777779,-635.555542,-167.500000,-173.048660,73.853691,58.872944,754
0.000000,719.424438,719.424438,88.888885,-646.666687,-162.500000,-170.458527,74.903748,56.842842,755
0.000000,695.443604,779.376465,91.111115,-640.000000,-167.500000,-168.078400,76.933846,54.532726,756
23.980814,671.462830,695.443604,82.222221,-642.222229,-172.500000,-163.528183,81.694084,52.852642,757
131.894485,671.462830,743.405273,80.000000,-635.555542,-180.000000,-157.647888,85.824295,52.152607,758
191.846512,671.462830,719.424438,73.333336,-642.222229,-180.000000,-151.907593,85.824295,55.302765,759
227.817734,623.501160,755.395630,73.333336,-635.555542,-185.000000,-154.077713,87.644386,55.792789,760
311.750580,575.539551,623.501160,68.888885,-635.555542,-187.500000,-159.537979,86.244316,59.012951,761
263.788971,587.529968,683.453186,64.444443,-633.333313,-197.500000,-164.438217,80.364021,65.943298,762
215.827332,551.558716,719.424438,51.111111,-637.777771,-197.500000,-166.328323,76.233810,70.633530,763
239.808136,563.549133,719.424438,51.111111,-631.111084,-207.500000,-169.408478,70.633530,77.003853,764
239.808136,527.577942,743.405273,42.222221,-633.333313,-205.000000,-174.098709,60.833042,88.274414,765
215.827332,515.587524,743.405273,33.333332,-631.111084,-210.000000,-179.068954,53.132656,97.234863,766
215.827332,503.597107,695.443604,24.444445,-635.555542,-207.500000,-182.569138,50.682533,101.155060,767
203.836914,515.587524,695.443604,28.888889,-626.666687,-212.500000,-176.618835,47.462372,105.355270,768
191.846512,575.539551,719.424438,20.000000,-631.111084,-212.500000,-164.718231,51.312565,103.255165,769
203.836914,551.558716,755.395630,8.888889,-628.888916,-212.500000,-149.947495,56.562828,101.225060,770
191.846512,575.539551,815.347656,-2.222222,-631.111084,-212.500000,-139.166962,64.823242,95.204758,771
215.827332,551.558716,803.357300,-6.666667,-624.444458,-225.000000,-133.286667,72.033600,89.184464,772
191.846512,551.558716,863.309326,-11.111111,-628.888916,-220.000000,-132.936646,71.333565,85.404274,773
239.808136,551.558716,827.338074,-15.555555,-622.222229,-227.500000,-141.337067,67.763390,82.604134,774
335.731415,527.577942,743.405273,-22.222221,-624.444458,-225.000000,-147.007355,66.573326,80.784042,775
323.740997,539.568298,755.395630,-28.888889,-617.777771,-230.000000,-159.467972,64.403221,80.784042,776
335.731415,527.577942,623.501160,-35.555557,-617.777771,-227.500000,-169.338470,60.623032,81.204063,777
347.721802,551.558716,635.491577,-37.777779,-617.777771,-227.500000,-175.778793,56.072803,80.294014,778
407.673828,551.558716,623.501160,-53.333332,-620.000000,-230.000000,-178.508926,51.522575,80.294014,779
407.673828,539.568298,503.597107,-55.555557,-611.111084,-237.500000,-174.238708,45.432274,81.764091,780
575.539551,551.558716,503.597107,-62.222221,-620.000000,-230.000000,-165.908295,46.202312,81.694084,781
515.587524,443.645050,527.577942,-62.222221,-611.111084,-235.000000,-153.797699,49.072453,77.633881,782
599.520386,503.597107,479.616272,-75.555557,-613.333313,-230.000000,-151.067551,41.232063,81.834091,783
623.501160,467.625885,527.577942,-80.000000,-608.888916,-237.500000,-158.907944,39.831993,80.224014,784
479.616272,311.750580,623.501160,-88.888885,-608.888916,-230.000000,-160.868042,35.421772,75.953796,785
563.549133,407.673828,587.529968,-93.333336,-604.444458,-235.000000,-158.207916,29.191460,77.913895,786
575.539551,383.693024,647.481995,-102.222221,-608.888916,-227.500000,-150.577530,32.761639,75.673782,787
491.606689,335.731415,659.472412,-104.444443,-597.777771,-237.500000,-147.147354,33.111656,74.763741,788
467.625885,263.788971,599.520386,-113.333336,-606.666687,-230.000000,-138.816940,29.961498,74.413719,789
575.539551,419.664246,623.501160,-115.555557,-593.333313,-232.500000,-139.026947,26.741337,77.283867,790
575.539551,359.712219,695.443604,-124.444443,-604.444458,-230.000000,-140.917053,29.891495,72.523628,791
503.597107,311.750580,671.462830,-126.666664,-593.333313,-235.000000,-142.947144,29.541477,68.183411,792
599.520386,383.693024,599.520386,-128.888885,-595.555542,-227.500000,-147.357376,27.791389,66.783340,793
587.529968,431.654663,623.501160,-133.333328,-593.333313,-230.000000,-148.967453,36.961849,59.922997,794
527.577942,407.673828,599.520386,-146.666672,-597.777771,-225.000000,-143.227158,50.192509,51.032551,795
515.587524,371.702637,695.443604,-146.666672,-588.888916,-232.500000,-136.716843,64.053200,41.442074,796
527.577942,431.654663,599.520386,-153.333328,-593.333313,-232.500000,-130.766541,73.783691,28.631432,797
539.568298,431.654663,623.501160,-153.333328,-586.666687,-235.000000,-119.145958,91.774590,28.911446,798
575.539551,407.673828,599.520386,-160.000000,-586.666687,-230.000000,-106.965347,103.745186,28.701435,799
575.539551,443.645050,659.472412,-157.777771,-575.555542,-237.500000,-101.645081,107.595383,28.351418,800
575.539551,359.712219,695.443604,-164.444443,-582.222229,-240.000000,-93.454674,113.475677,29.261463,801
575.539551,347.721802,707.434021,-166.666672,-577.777771,-240.000000,-93.664680,117.395874,27.231361,802
599.520386,359.712219,683.453186,-168.888885,-573.333313,-242.500000,-97.024849,119.986000,23.311165,803
599.520386,335.731415,623.501160,-171.111115,-568.888916,-252.500000,-99.614983,119.635986,21.001051,804
647.481995,347.721802,623.501160,-177.777771,-571.111084,-247.500000,-100.945045,117.115860,20.861044,805
647.481995,383.693024,575.539551,-175.555557,-562.222229,-255.000000,-102.345116,111.725586,22.681135,806
731.414856,359.712219,599.520386,-180.000000,-571.111084,-252.500000,-106.545326,106.545326,23.381168,807
695.443604,335.731415,599.520386,-182.222229,-562.222229,-257.500000,-116.065804,99.404968,24.501225,808
683.453186,335.731415,635.491577,-186.666672,-560.000000,-255.000000,-128.386414,92.544632,23.941196,809
479.616272,311.750580,647.481995,-191.111115,-555.555542,-260.000000,-138.256912,87.434372,23.871193,810
551.558716,323.740997,599.520386,-191.111115,-555.555542,-260.000000,-140.287018,79.733986,29.681484,811
695.443604,407.673828,599.520386,-202.222229,-548.888916,-260.000000,-142.527130,77.003853,32.061604,812
707.434021,347.721802,623.501160,-204.444443,-555.555542,-257.500000,-141.547073,78.473923,30.031502,813
623.501160,263.788971,671.462830,-204.444443,-546.666687,-262.500000,-135.666779,84.284218,25.411270,814
623.501160,263.788971,671.462830,-208.888885,-551.111084,-255.000000,-130.276520,89.324471,22.471125,815
623.501160,263.788971,719.424438,-213.333328,-542.222229,-265.000000,-128.666428,93.874695,23.941196,816
599.520386,239.808136,707.434021,-220.000000,-544.444458,-257.500000,-128.316422,95.274765,28.561428,817
719.424438,287.769775,671.462830,-220.000000,-540.000000,-262.500000,-128.246414,89.464478,38.081905,818
767.386047,227.817734,635.491577,-222.222229,-537.777771,-262.500000,-132.656631,83.794189,41.862095,819
695.443604,191.846512,599.520386,-228.888885,-531.111084,-265.000000,-137.066849,77.493874,43.962200,820
683.453186,191.846512,503.597107,-235.555557,-533.333313,-262.500000,-135.596786,72.943649,51.732586,821
767.386047,167.865707,407.673828,-240.000000,-524.444458,-260.000000,-134.686737,65.523277,65.103256,822
875.299744,191.846512,455.635468,-244.444443,-528.888916,-255.000000,-133.006653,59.432972,68.883446,823
863.309326,191.846512,455.635468,-248.888885,-522.222229,-262.500000,-133.636688,59.222961,67.203362,824
851.318909,179.856110,383.693024,-260.000000,-522.222229,-255.000000,-132.306610,61.883095,64.683235,825
911.270935,191.846512,311.750580,-260.000000,-520.000000,-260.000000,-129.996506,69.303467,63.913197,826
947.242188,203.836914,287.769775,-260.000000,-513.333313,-255.000000,-125.796288,81.624084,61.113056,827
935.251770,191.846512,335.731415,-268.888885,-506.666656,-255.000000,-116.345818,93.804688,56.562828,828
899.280518,191.846512,299.760193,-273.333344,-513.333313,-255.000000,-106.195313,103.115158,53.692684,829
815.347656,215.827332,359.712219,-271.111115,-495.555542,-262.500000,-96.954849,111.655586,52.502625,830
791.366882,203.836914,359.712219,-282.222229,-500.000000,-257.500000,-89.604485,122.156113,50.542526,831
815.347656,119.904068,431.654663,-277.777771,-491.111115,-267.500000,-83.024155,133.006653,47.952396,832
803.357300,143.884888,491.606689,-288.888885,-495.555542,-262.500000,-79.733986,144.627228,44.662235,833
767.386047,95.923256,551.558716,-286.666656,-486.666656,-267.500000,-82.534126,153.867691,42.492126,834
779.376465,47.961628,563.549133,-291.111115,-484.444458,-270.000000,-87.224365,158.767944,41.092056,835
767.386047,-23.980814,575.539551,-295.555542,-471.111115,-277.500000,-92.124611,161.008057,39.761990,836
791.366882,23.980814,563.549133,-302.222229,-475.555542,-272.500000,-95.974800,161.708084,38.221912,837
851.318909,23.980814,503.597107,-304.444458,-466.666656,-277.500000,-98.704933,161.988098,38.011902,838
887.290100,71.942444,431.654663,-304.444458,-468.888885,-275.000000,-109.275467,161.428070,33.601681,839
839.328491,59.952034,443.645050,-308.888885,-457.777771,-280.000000,-122.506126,161.288071,32.341618,840
887.290100,47.961628,407.673828,-313.333344,-460.000000,-280.000000,-134.546722,161.358063,32.201611,841
935.251770,59.952034,335.731415,-317.777771,-453.333344,-282.500000,-140.847046,159.677979,32.341618,842
935.251770,119.904068,311.750580,-322.222229,-448.888885,-280.000000,-142.037109,160.518021,34.231712,843
911.270935,119.904068,263.788971,-324.444458,-435.555542,-285.000000,-139.376968,160.238007,39.481976,844
887.290100,143.884888,191.846512,-333.333344,-437.777771,-280.000000,-135.806793,159.327972,44.452225,845
887.290100,119.904068,215.827332,-335.555542,-428.888885,-285.000000,-130.906540,158.977951,49.912495,846
935.251770,71.942444,239.808136,-337.777771,-424.444458,-280.000000,-125.586281,157.857895,55.582779,847
935.251770,59.952034,239.808136,-342.222229,-417.777771,-287.500000,-121.036057,155.197769,59.012951,848
983.213379,-119.904068,191.846512,-348.888885,-420.000000,-282.500000,-112.425621,150.787537,61.253063,849
959.232544,-11.990407,215.827332,-351.111115,-406.666656,-280.000000,-107.175362,147.707382,61.603081,850
911.270935,-23.980814,215.827332,-353.333344,-406.666656,-280.000000,-101.085052,142.667130,62.373119,851
935.251770,-11.990407,215.827332,-357.777771,-393.333344,-285.000000,-93.594681,137.346863,63.843193,852
935.251770,-23.980814,239.808136,-362.222229,-395.555542,-277.500000,-85.754288,132.446625,65.873291,853
971.222961,-95.923256,275.779358,-366.666656,-384.444458,-290.000000,-80.924049,128.876450,66.923347,854
983.213379,-95.923256,191.846512,-371.111115,-384.444458,-280.000000,-77.843895,129.226456,67.623383,855
971.222961,-107.913666,215.827332,-371.111115,-377.777771,-287.500000,-74.203712,132.026596,67.763390,856
959.232544,-191.846512,191.846512,-373.333344,-373.333344,-282.500000,-70.913544,135.736786,67.413368,857
959.232544,-155.875290,191.846512,-375.555542,-366.666656,-287.500000,-66.573326,138.816940,66.013298,858
983.213379,-119.904068,167.865707,-380.000000,-362.222229,-290.000000,-65.243263,141.687088,67.203362,859
959.232544,-131.894485,191.846512,-382.222229,-348.888885,-287.500000,-66.853340,145.187256,69.933495,860
935.251770,-95.923256,215.827332,-388.888885,-351.111115,-285.000000,-69.023453,148.827438,73.223663,861
959.232544,-107.913666,215.827332,-391.111115,-342.222229,-287.500000,-72.033600,150.227509,76.163811,862
983.213379,-143.884888,215.827332,-395.555542,-340.000000,-282.500000,-73.363670,152.327621,76.933846,863
971.222961,-143.884888,191.846512,-393.333344,-326.666656,-287.500000,-74.343719,155.687790,78.333916,864
983.213379,-167.865707,167.865707,-402.222229,-326.666656,-287.500000,-74.553726,159.677979,80.294014,865
1019.184631,-167.865707,155.875290,-395.555542,-317.777771,-290.000000,-71.053551,159.747986,80.434021,866
983.213379,-191.846512,143.884888,-400.000000,-311.111115,-290.000000,-65.523277,158.347916,77.493874,867
995.203796,-179.856110,191.846512,-406.666656,-304.444458,-287.500000,-58.522926,154.497726,76.233810,868
983.213379,-215.827332,143.884888,-411.111115,-295.555542,-287.500000,-51.522575,147.707382,74.903748,869
983.213379,-215.827332,179.856110,-413.333344,-286.666656,-292.500000,-46.692333,139.796997,74.553726,870
1007.194214,-191.846512,191.846512,-415.555542,-286.666656,-285.000000,-43.472176,133.496674,73.153656,871
1007.194214,-191.846512,155.875290,-415.555542,-275.555542,-290.000000,-43.962200,131.746582,72.033600,872
959.232544,-179.856110,131.894485,-417.777771,-277.777771,-287.500000,-44.172211,136.016800,72.243614,873
959.232544,-167.865707,95.923256,-417.777771,-266.666656,-292.500000,-40.812042,145.327271,74.133705,874
1007.194214,-179.856110,71.942444,-420.000000,-262.222229,-290.000000,-37.661884,150.717545,74.833740,875
983.213379,-191.846512,-47.961628,-422.222229,-253.333328,-290.000000,-28.141407,159.888000,75.673782,876
1043.165405,-191.846512,-107.913666,-428.888885,-246.666672,-292.500000,-19.530977,173.748688,78.543930,877
1031.175049,-191.846512,-143.884888,-422.222229,-235.555557,-295.000000,-5.460273,183.829193,82.954147,878
983.213379,-215.827332,-47.961628,-428.888885,-235.555557,-292.500000,-6.930346,201.260071,77.143860,879
959.232544,-287.769775,71.942444,-428.888885,-220.000000,-297.500000,-17.220861,220.371017,73.083656,880
1031.175049,-287.769775,35.971222,-431.111115,-217.777771,-295.000000,-26.041302,229.751495,73.713684,881
911.270935,-239.808136,23.980814,-428.888885,-208.888885,-302.500000,-36.681835,234.721741,66.713333,882
947.242188,-275.779358,47.961628,-433.333344,-200.000000,-297.500000,-39.901997,236.191818,65.523277,883
839.328491,-239.808136,0.000000,-435.555542,-188.888885,-300.000000,-39.061954,236.891846,73.923698,884
947.242188,-287.769775,0.000000,-435.555542,-180.000000,-295.000000,-34.161709,237.661880,79.523979,885
959.232544,-359.712219,-23.980814,-431.111115,-168.888885,-300.000000,-38.501926,236.681839,75.603783,886
971.222961,-311.750580,0.000000,-440.000000,-164.444443,-295.000000,-43.192162,233.741684,73.293663,887
1007.194214,-335.731415,-95.923256,-435.555542,-151.111115,-300.000000,-45.502277,226.391327,73.923698,888
995.203796,-359.712219,-47.961628,-442.222229,-153.333328,-295.000000,-45.642284,222.121109,75.043755,889
935.251770,-383.693024,-95.923256,-440.000000,-135.555557,-292.500000,-47.182358,218.690933,75.043755,890
947.242188,-443.645050,-71.942444,-442.222229,-131.111115,-295.000000,-49.352467,216.450821,71.193558,891
983.213379,-431.654663,-47.961628,-444.444458,-126.666664,-292.500000,-48.792439,214.000702,66.713333,892
971.222961,-467.625885,-47.961628,-446.666656,-113.333336,-285.000000,-51.592579,209.590485,63.563179,893
971.222961,-443.645050,-35.971222,-446.666656,-102.222221,-287.500000,-48.792439,204.200211,60.903046,894
923.261353,-479.616272,23.980814,-448.888885,-106.666664,-282.500000,-48.162407,200.070007,61.043053,895
863.309326,-383.693024,-71.942444,-444.444458,-93.333336,-282.500000,-51.452572,190.899551,58.312916,896
911.270935,-467.625885,-23.980814,-451.111115,-91.111115,-275.000000,-52.642632,184.739243,59.012951,897
959.232544,-455.635468,-143.884888,-451.111115,-80.000000,-277.500000,-54.252712,177.948898,58.102905,898
959.232544,-407.673828,-179.856110,-451.111115,-75.555557,-270.000000,-47.112354,178.438919,60.903046,899
935.251770,-335.731415,-239.808136,-451.111115,-68.888885,-270.000000,-45.012253,178.858948,61.673084,900
971.222961,-335.731415,-251.798553,-455.555542,-60.000000,-262.500000,-39.551979,180.189011,64.543228,901
959.232544,-383.693024,-215.827332,-451.111115,-51.111111,-267.500000,-32.831642,185.509277,67.623383,902
935.251770,-323.740997,-299.760193,-455.555542,-51.111111,-262.500000,-28.491425,187.399368,69.583481,903
887.290100,-239.808136,-383.693024,-451.111115,-37.777779,-262.500000,-21.001051,191.599579,76.023804,904
875.299744,-227.817734,-395.683441,-453.333344,-33.333332,-255.000000,-11.270564,197.759888,85.474274,905
839.328491,-311.750580,-311.750580,-446.666656,-20.000000,-257.500000,-1.680084,203.220169,94.084702,906
827.338074,-311.750580,-359.712219,-446.666656,-22.222221,-255.000000,4.900245,201.820099,99.474976,907
839.328491,-299.760193,-371.702637,-451.111115,-8.888889,-252.500000,12.530626,201.400070,106.545326,908
887.290100,-359.712219,-287.769775,-446.666656,0.000000,-255.000000,22.331118,193.629684,111.445572,909
863.309326,-395.683441,-275.779358,-444.444458,13.333333,-257.500000,28.631432,180.819046,114.245712,910
863.309326,-455.635468,-287.769775,-442.222229,17.777779,-250.000000,30.731537,165.908295,113.125656,911
911.270935,-503.597107,-251.798553,-440.000000,24.444445,-250.000000,31.291565,158.627930,102.485123,912
887.290100,-503.597107,-287.769775,-442.222229,28.888889,-250.000000,35.001751,140.007004,98.284912,913
839.328491,-491.606689,-263.788971,-435.555542,37.777779,-255.000000,32.761639,132.936646,101.505074,914
815.347656,-527.577942,-215.827332,-437.777771,37.777779,-245.000000,32.551628,126.426323,103.815193,915
863.309326,-539.568298,-227.817734,-433.333344,51.111111,-247.500000,34.861744,120.196014,104.375221,916
911.270935,-551.558716,-287.769775,-426.666656,55.555557,-252.500000,37.451874,116.135811,103.605179,917
911.270935,-539.568298,-275.779358,-426.666656,68.888885,-255.000000,41.442074,113.825691,102.275116,918
887.290100,-527.577942,-239.808136,-428.888885,68.888885,-250.000000,47.672382,113.895699,99.824989,919
863.309326,-515.587524,-299.760193,-420.000000,77.777779,-252.500000,58.522926,115.155762,99.054955,920
863.309326,-503.597107,-263.788971,-417.777771,80.000000,-247.500000,75.183762,114.315720,103.045151,921
863.309326,-491.606689,-275.779358,-413.333344,93.333336,-252.500000,88.974449,114.595734,113.195663,922
911.270935,-503.597107,-311.750580,-415.555542,88.888885,-252.500000,102.555130,110.885544,121.946098,923
947.242188,-527.577942,-323.740997,-408.888885,104.444443,-257.500000,117.955902,102.135109,127.126358,924
863.309326,-479.616272,-287.769775,-406.666656,108.888885,-260.000000,127.126358,96.674835,128.386414,925
851.318909,-503.597107,-359.712219,-395.555542,122.222221,-265.000000,141.057053,89.604485,134.196716,926
863.309326,-455.635468,-335.731415,-388.888885,122.222221,-270.000000,155.057755,75.813789,139.096954,927
839.328491,-407.673828,-311.750580,-380.000000,133.333328,-272.500000,162.408127,62.723137,143.227158,928
827.338074,-431.654663,-311.750580,-377.777771,133.333328,-277.500000,160.238007,52.222610,142.947144,929
827.338074,-443.645050,-311.750580,-373.333344,146.666672,-285.000000,153.307663,42.772141,137.906891,930
815.347656,-503.597107,-215.827332,-364.444458,137.777771,-282.500000,146.167313,35.981800,135.876801,931
791.366882,-467.625885,-251.798553,-362.222229,148.888885,-292.500000,140.147003,31.571579,137.906891,932
767.386047,-503.597107,-263.788971,-351.111115,160.000000,-292.500000,136.366821,28.701435,138.326920,933
791.366882,-539.568298,-287.769775,-340.000000,166.666672,-302.500000,134.966751,28.491425,138.816940,934
767.386047,-623.501160,-287.769775,-337.777771,160.000000,-300.000000,140.707031,30.171509,139.096954,935
755.395630,-563.549133,-275.779358,-326.666656,173.333328,-307.500000,151.907593,31.571579,140.917053,936
719.424438,-599.520386,-287.769775,-324.444458,173.333328,-305.000000,158.557922,32.691635,146.237320,937
719.424438,-599.520386,-227.817734,-311.111115,182.222229,-317.500000,173.608688,34.651733,151.067551,938
719.424438,-767.386047,-191.846512,-306.666656,182.222229,-320.000000,186.839340,37.451874,159.327972,939
683.453186,-815.347656,-107.913666,-300.000000,191.111115,-327.500000,199.439972,44.522228,165.138260,940
599.520386,-887.290100,-47.961628,-286.666656,195.555557,-325.000000,209.730484,52.572628,166.258316,941
611.510742,-887.290100,-35.971222,-268.888885,208.888885,-337.500000,216.100815,59.362968,160.238007,942
575.539551,-887.290100,35.971222,-257.777771,206.666672,-337.500000,222.051102,60.973049,160.168015,943
575.539551,-815.347656,71.942444,-244.444443,220.000000,-345.000000,221.911102,58.942947,160.168015,944
575.539551,-851.318909,23.980814,-242.222229,217.777771,-342.500000,215.260773,55.232761,157.787888,945
575.539551,-863.309326,0.000000,-228.888885,226.666672,-352.500000,205.040253,50.542526,156.877838,946
599.520386,-851.318909,35.971222,-224.444443,224.444443,-347.500000,192.929642,45.362270,156.247818,947
671.462830,-863.309326,-23.980814,-213.333328,237.777771,-352.500000,184.389221,38.081905,153.867691,948
647.481995,-839.328491,-35.971222,-204.444443,240.000000,-355.000000,186.069305,30.171509,152.747635,949
719.424438,-815.347656,-95.923256,-184.444443,244.444443,-360.000000,189.009445,26.181309,153.447678,950
695.443604,-839.328491,-59.952034,-175.555557,244.444443,-365.000000,194.399719,18.200911,156.247818,951
671.462830,-791.366882,-95.923256,-164.444443,248.888885,-370.000000,200.000000,11.270564,157.647888,952
683.453186,-815.347656,-131.894485,-153.333328,246.666672,-365.000000,207.980408,6.020301,158.697937,953
599.520386,-791.366882,-47.961628,-140.000000,251.111115,-377.500000,218.340912,3.990200,162.058105,954
599.520386,-815.347656,-143.884888,-133.333328,251.111115,-375.000000,229.751495,2.380119,165.208267,955
551.558716,-743.405273,-71.942444,-117.777779,255.555557,-385.000000,245.992310,1.540077,168.848450,956
551.558716,-791.366882,-131.894485,-106.666664,257.777771,-385.000000,268.323425,-0.210010,174.308716,957
431.654663,-863.309326,-95.923256,-95.555557,264.444458,-390.000000,280.994049,1.540077,183.199158,958
467.625885,-875.299744,-107.913666,-71.111115,255.555557,-387.500000,297.164856,-3.570179,188.729431,959
407.673828,-887.290100,-23.980814,-51.111111,260.000000,-397.500000,314.245728,-7.700385,193.979706,960
407.673828,-899.280518,0.000000,-35.555557,260.000000,-392.500000,329.716492,-10.990550,197.339874,961
359.712219,-911.270935,-23.980814,-15.555555,262.222229,-400.000000,336.856842,-12.530626,199.439972,962
371.702637,-803.357300,-23.980814,-6.666667,260.000000,-395.000000,346.587341,-12.460623,197.059860,963
371.702637,-803.357300,71.942444,15.555555,262.222229,-402.500000,333.776703,0.490025,185.649292,964
323.740997,-815.347656,119.904068,26.666666,264.444458,-405.000000,306.335327,17.220861,170.878540,965
263.788971,-863.309326,167.865707,40.000000,262.222229,-402.500000,278.753937,28.631432,154.917755,966
239.808136,-851.318909,179.856110,66.666664,262.222229,-392.500000,254.322723,32.271614,141.617081,967
239.808136,-935.251770,167.865707,77.777779,264.444458,-397.500000,233.041656,32.201611,128.876450,968
203.836914,-887.290100,215.827332,86.666664,262.222229,-390.000000,214.560730,31.361568,117.255867,969
191.846512,-959.232544,215.827332,104.444443,268.888885,-395.000000,198.179916,30.171509,107.385368,970
203.836914,-947.242188,203.836914,104.444443,257.777771,-387.500000,185.789291,26.461323,97.934898,971
191.846512,-959.232544,215.827332,115.555557,268.888885,-392.500000,179.348969,21.211061,90.444527,972
203.836914,-923.261353,215.827332,124.444443,264.444458,-385.000000,178.088913,14.700735,86.594330,973
191.846512,-911.270935,119.904068,128.888885,264.444458,-387.500000,179.838989,8.400420,85.334267,974
179.856110,-887.290100,143.884888,137.777771,257.777771,-377.500000,183.129166,4.900245,84.564232,975
191.846512,-863.309326,167.865707,153.333328,260.000000,-380.000000,190.059509,-0.980049,85.054253,976
227.817734,-887.290100,119.904068,157.777771,257.777771,-377.500000,197.479874,-6.230311,88.274414,977
179.856110,-887.290100,155.875290,173.333328,260.000000,-380.000000,207.630386,-11.200561,92.334618,978
191.846512,-863.309326,143.884888,175.555557,253.333328,-375.000000,214.000702,-14.140707,96.884842,979
215.827332,-851.318909,155.875290,186.666672,257.777771,-377.500000,221.561081,-19.040953,102.205109,980
239.808136,-839.328491,191.846512,197.777771,251.111115,-375.000000,222.471130,-24.781239,106.825340,981
227.817734,-839.328491,191.846512,204.444443,251.111115,-372.500000,219.810989,-31.081554,108.435425,982
215.827332,-815.347656,191.846512,226.666672,240.000000,-365.000000,218.480927,-36.821842,111.025551,983
215.827332,-791.366882,179.856110,235.555557,244.444443,-370.000000,215.330765,-42.562130,113.965698,984
191.846512,-791.366882,119.904068,242.222229,235.555557,-360.000000,210.920547,-44.522228,117.045853,985
203.836914,-767.386047,179.856110,255.555557,235.555557,-362.500000,204.340225,-45.152260,118.865944,986
191.846512,-815.347656,191.846512,262.222229,228.888885,-360.000000,201.610077,-46.342319,119.845993,987
179.856110,-791.366882,179.856110,271.111115,231.111115,-360.000000,192.789642,-47.322365,119.986000,988
95.923256,-839.328491,119.904068,277.777771,217.777771,-350.000000,184.249222,-46.062305,119.635986,989
35.971222,-803.357300,143.884888,284.444458,217.777771,-350.000000,176.688843,-42.282116,119.005951,990
-191.846512,-839.328491,71.942444,297.777771,213.333328,-342.500000,170.948547,-36.471825,120.266014,991
-167.865707,-863.309326,131.894485,313.333344,211.111115,-347.500000,167.728394,-29.961498,122.716141,992
-119.904068,-839.328491,167.865707,315.555542,200.000000,-340.000000,173.118652,-28.421421,124.396217,993
-167.865707,-839.328491,143.884888,324.444458,204.444443,-340.000000,181.869095,-30.171509,127.126358,994
-119.904068,-887.290100,191.846512,333.333344,195.555557,-337.500000,186.629333,-33.251663,131.326569,995
-59.952034,-899.280518,203.836914,342.222229,197.777771,-337.500000,183.549179,-37.101856,131.886597,996
0.000000,-887.290100,215.827332,346.666656,182.222229,-327.500000,173.818695,-42.562130,130.066498,997
-47.961628,-875.299744,227.817734,357.777771,182.222229,-325.000000,159.957993,-47.532375,127.686386,998
-47.961628,-863.309326,215.827332,364.444458,173.333328,-317.500000,142.317123,-51.172558,122.156113,999
-11.990407,-815.347656,215.827332,375.555542,175.555557,-322.500000,136.016800,-57.332867,119.635986,1000
-35.971222,-851.318909,191.846512,377.777771,160.000000,-317.500000,126.636330,-61.463074,118.935951,1001
0.000000,-791.366882,191.846512,384.444458,164.444443,-315.000000,119.215965,-64.753235,119.425972,1002
0.000000,-779.376465,191.846512,393.333344,153.333328,-312.500000,114.105705,-66.783340,118.095909,1003
-23.980814,-767.386047,239.808136,402.222229,155.555557,-315.000000,108.505424,-68.323418,114.875748,1004
11.990407,-755.395630,239.808136,397.777771,140.000000,-307.500000,102.835144,-73.293663,111.865593,1005
-23.980814,-719.424438,191.846512,404.444458,142.222229,-310.000000,96.814842,-78.963951,110.395523,1006
0.000000,-731.414856,239.808136,408.888885,131.111115,-307.500000,92.894646,-82.254112,113.615685,1007
0.000000,-695.443604,239.808136,420.000000,131.111115,-310.000000,88.834442,-81.134056,118.515930,1008
-11.990407,-683.453186,215.827332,420.000000,117.777779,-310.000000,87.364372,-77.983902,122.296120,1009
-23.980814,-647.481995,191.846512,428.888885,113.333336,-310.000000,84.774239,-74.343719,126.286316,1010
-35.971222,-635.491577,203.836914,431.111115,104.444443,-302.500000,84.144211,-73.433670,131.466568,1011
-95.923256,-575.539551,143.884888,435.555542,106.666664,-312.500000,84.774239,-73.643684,134.896744,1012
-131.894485,-599.520386,167.865707,440.000000,88.888885,-300.000000,88.134407,-74.623734,143.997208,1013
-215.827332,-599.520386,191.846512,446.666656,88.888885,-300.000000,93.384666,-73.993698,156.317810,1014
-227.817734,-599.520386,203.836914,453.333344,82.222221,-300.000000,100.665031,-75.603783,169.408478,1015
-383.693024,-623.501160,215.827332,462.222229,68.888885,-297.500000,109.765488,-84.004204,183.619186,1016
-419.664246,-671.462830,239.808136,466.666656,53.333332,-290.000000,111.585579,-91.704590,196.919846,1017
-479.616272,-767.386047,239.808136,473.333344,48.888889,-297.500000,106.125305,-98.704933,205.950302,1018
-479.616272,-743.405273,275.779358,471.111115,35.555557,-287.500000,94.434723,-105.635284,207.490372,1019
-503.597107,-767.386047,263.788971,484.444458,33.333332,-292.500000,80.784042,-114.455727,205.110260,1020
-491.606689,-767.386047,311.750580,482.222229,13.333333,-282.500000,64.123207,-122.926147,199.789993,1021
-491.606689,-767.386047,299.760193,486.666656,11.111111,-292.500000,46.552330,-131.396576,193.979706,1022
-515.587524,-731.414856,323.740997,493.333344,-2.222222,-285.000000,33.251663,-140.497025,189.289459,1023
-431.654663,-695.443604,287.769775,497.777771,-17.777779,-290.000000,24.711235,-144.907242,186.769333,1024
-395.683441,-779.376465,395.683441,495.555542,-33.333332,-290.000000,27.931396,-158.277908,199.299973,1025
-503.597107,-479.616272,239.808136,502.222229,-37.777779,-290.000000,37.941898,-165.348267,199.929993,1026
-467.625885,-515.587524,215.827332,500.000000,-57.777779,-287.500000,27.651382,-162.268112,188.309418,1027
-383.693024,-431.654663,167.865707,504.444458,-62.222221,-292.500000,23.031153,-166.258316,181.729095,1028
-359.712219,-407.673828,179.856110,506.666656,-77.777779,-287.500000,25.201260,-172.278610,176.268814,1029
-335.731415,-455.635468,191.846512,502.222229,-80.000000,-295.000000,30.031502,-175.358765,170.038498,1030
-335.731415,-419.664246,215.827332,508.888885,-93.333336,-287.500000,41.582081,-182.779144,167.378372,1031
-359.712219,-335.731415,191.846512,511.111115,-108.888885,-290.000000,53.832691,-186.489319,165.908295,1032
-347.721802,-383.693024,191.846512,511.111115,-126.666664,-282.500000,60.413021,-182.009109,163.108154,1033
-383.693024,-335.731415,215.827332,513.333313,-133.333328,-280.000000,67.343369,-175.708786,156.947845,1034
-407.673828,-335.731415,239.808136,515.555542,-142.222229,-277.500000,70.983551,-172.418625,155.477768,1035
-311.750580,-419.664246,11.990407,517.777771,-146.666672,-277.500000,90.934547,-160.168015,147.497375,1036
-647.481995,-287.769775,335.731415,515.555542,-160.000000,-267.500000,116.205811,-142.667130,134.546722,1037
-611.510742,-383.693024,335.731415,515.555542,-160.000000,-270.000000,104.865242,-140.007004,131.116562,1038
-743.405273,-383.693024,551.558716,522.222229,-171.111115,-262.500000,74.623734,-146.167313,133.706680,1039
-779.376465,-383.693024,491.606689,524.444458,-182.222229,-260.000000,45.292267,-161.568085,139.026947,1040
-791.366882,-359.712219,287.769775,515.555542,-202.222229,-250.000000,35.281765,-173.328674,143.717194,1041
-791.366882,-335.731415,299.760193,520.000000,-202.222229,-255.000000,33.111656,-172.908646,146.797348,1042
-767.386047,-359.712219,215.827332,515.555542,-220.000000,-250.000000,36.331818,-160.868042,150.087509,1043
-779.376465,-347.721802,275.779358,517.777771,-217.777771,-252.500000,66.713333,-132.376617,141.827087,1044
-959.232544,-215.827332,695.443604,517.777771,-228.888885,-245.000000,86.734337,-107.595383,131.186554,1045
-887.290100,-251.798553,647.481995,522.222229,-233.333328,-242.500000,41.232063,-125.306267,151.907593,1046
-791.366882,-239.808136,383.693024,520.000000,-246.666672,-240.000000,28.701435,-136.436829,161.148056,1047
-767.386047,-227.817734,359.712219,515.555542,-255.555557,-237.500000,31.081554,-139.796997,165.908295,1048
-743.405273,-239.808136,335.731415,513.333313,-271.111115,-230.000000,29.261463,-139.936996,169.408478,1049
-707.434021,-167.865707,347.721802,511.111115,-273.333344,-235.000000,21.981100,-141.617081,170.808548,1050
-671.462830,-191.846512,287.769775,511.111115,-288.888885,-227.500000,15.120756,-142.947144,171.018555,1051
-731.414856,-155.875290,311.750580,508.888885,-291.111115,-230.000000,8.260413,-143.297165,170.878540,1052
-695.443604,-71.942444,239.808136,504.444458,-308.888885,-222.500000,0.630032,-145.467270,170.738541,1053
-707.434021,-95.923256,251.798553,504.444458,-308.888885,-225.000000,-5.740287,-144.207214,171.438568,1054
-791.366882,-71.942444,215.827332,502.222229,-320.000000,-222.500000,-7.840392,-138.186905,173.818695,1055
-851.318909,-71.942444,239.808136,500.000000,-328.888885,-220.000000,-6.020301,-133.076660,173.748688,1056
-875.299744,-83.932854,239.808136,488.888885,-348.888885,-217.500000,-1.610080,-133.356674,169.268463,1057
-899.280518,-59.952034,239.808136,491.111115,-348.888885,-215.000000,1.120056,-134.616730,163.388168,1058
-959.232544,-95.923256,287.769775,486.666656,-357.777771,-210.000000,-0.700035,-134.966751,156.107803,1059
-947.242188,-119.904068,311.750580,488.888885,-360.000000,-212.500000,-4.130207,-131.746582,146.517334,1060
-935.251770,-143.884888,383.693024,482.222229,-375.555542,-202.500000,-7.070354,-123.136162,134.546722,1061
-947.242188,-119.904068,431.654663,482.222229,-371.111115,-207.500000,-8.470424,-117.955902,127.476372,1062
-959.232544,-191.846512,479.616272,473.333344,-386.666656,-200.000000,-14.700735,-106.475327,112.565628,1063
-959.232544,-143.884888,515.587524,475.555542,-382.222229,-202.500000,-26.321316,-92.194611,98.144905,1064
-959.232544,-119.904068,455.635468,468.888885,-393.333344,-202.500000,-39.271965,-78.403923,83.024155,1065
-899.280518,-59.952034,491.606689,471.111115,-393.333344,-205.000000,-51.312565,-68.533424,69.163460,1066
-815.347656,0.000000,479.616272,464.444458,-400.000000,-205.000000,-63.073154,-65.033249,59.362968,1067
-827.338074,35.971222,479.616272,464.444458,-395.555542,-205.000000,-75.323769,-66.643333,53.972698,1068
-743.405273,0.000000,431.654663,460.000000,-404.444458,-205.000000,-89.394470,-69.583481,52.152607,1069
-707.434021,107.913666,419.664246,464.444458,-402.222229,-210.000000,-104.095207,-73.013649,52.712635,1070
-647.481995,191.846512,359.712219,457.777771,-406.666656,-205.000000,-117.535881,-78.053902,57.472874,1071
-575.539551,215.827332,335.731415,451.111115,-415.555542,-212.500000,-128.946442,-85.684288,65.173256,1072
-563.549133,227.817734,359.712219,446.666656,-422.222229,-217.500000,-139.866989,-96.464821,71.543579,1073
-623.501160,191.846512,407.673828,442.222229,-415.555542,-225.000000,-146.377319,-102.205109,76.583832,1074
-635.491577,239.808136,479.616272,437.777771,-426.666656,-222.500000,-169.618484,-117.115860,78.473923,1075
-671.462830,191.846512,431.654663,437.777771,-426.666656,-230.000000,-199.509979,-129.926498,83.514175,1076
-707.434021,335.731415,491.606689,428.888885,-435.555542,-227.500000,-215.540787,-142.877151,85.824295,1077
-719.424438,239.808136,479.616272,424.444458,-433.333344,-237.500000,-232.901642,-142.667130,90.304520,1078
-743.405273,227.817734,671.462830,420.000000,-440.000000,-240.000000,-256.492828,-135.806793,95.204758,1079
-755.395630,215.827332,647.481995,413.333344,-444.444458,-247.500000,-279.593994,-135.806793,98.284912,1080
-707.434021,251.798553,659.472412,395.555542,-455.555542,-250.000000,-291.494568,-134.476730,97.514877,1081
-743.405273,167.865707,647.481995,391.111115,-457.777771,-262.500000,-301.575073,-130.626526,96.254814,1082
-719.424438,203.836914,695.443604,380.000000,-462.222229,-265.000000,-309.065460,-124.746239,93.104660,1083
-575.539551,215.827332,695.443604,373.333344,-462.222229,-270.000000,-315.575775,-116.415825,88.904449,1084
-539.568298,239.808136,671.462830,364.444458,-473.333344,-275.000000,-317.185852,-105.005249,86.174309,1085
-383.693024,263.788971,623.501160,357.777771,-473.333344,-282.500000,-315.925812,-93.874695,83.094154,1086
-383.693024,215.827332,659.472412,348.888885,-480.000000,-282.500000,-313.825684,-88.204414,82.324120,1087
-311.750580,263.788971,671.462830,342.222229,-480.000000,-290.000000,-314.315704,-80.364021,75.743790,1088
-287.769775,275.779358,647.481995,324.444458,-482.222229,-302.500000,-315.925812,-75.253761,64.263214,1089
-359.712219,239.808136,647.481995,317.777771,-484.444458,-312.500000,-317.045868,-67.553375,50.192509,1090
-323.740997,287.769775,671.462830,308.888885,-486.666656,-315.000000,-319.075958,-60.623032,40.322018,1091
-239.808136,335.731415,647.481995,304.444458,-486.666656,-322.500000,-322.996155,-53.482674,33.951698,1092
-251.798553,299.760193,719.424438,291.111115,-493.333344,-325.000000,-320.546021,-45.922298,27.721386,1093
-191.846512,311.750580,767.386047,284.444458,-491.111115,-332.500000,-314.245728,-40.042004,21.141058,1094
-191.846512,335.731415,839.328491,280.000000,-495.555542,-335.000000,-304.375214,-34.511726,18.130907,1095
-215.827332,359.712219,863.309326,271.111115,-493.333344,-342.500000,-296.464813,-29.121456,18.340918,1096
-191.846512,407.673828,935.251770,264.444458,-493.333344,-347.500000,-289.674500,-23.171160,16.030802,1097
-179.856110,335.731415,983.213379,248.888885,-488.888885,-357.500000,-285.404266,-17.290865,11.970598,1098
-191.846512,359.712219,1079.136597,242.222229,-495.555542,-360.000000,-284.494232,-14.560728,8.820441,1099
-191.846512,323.740997,1175.059937,237.777771,-488.888885,-367.500000,-289.394470,-6.300315,7.700385,1100
-167.865707,455.635468,1247.002319,226.666672,-493.333344,-367.500000,-296.814850,-0.980049,2.240112,1101
-143.884888,311.750580,1223.021484,217.777771,-486.666656,-377.500000,-297.374878,-1.960098,-4.200210,1102
-119.904068,239.808136,1103.117432,213.333328,-488.888885,-375.000000,-284.004211,0.000000,-4.970249,1103
-47.961628,215.827332,1163.069458,202.222229,-482.222229,-382.500000,-261.183075,-1.050053,-5.950297,1104
0.000000,191.846512,1199.040771,200.000000,-488.888885,-380.000000,-240.602036,-2.310116,-3.710186,1105
11.990407,251.798553,1091.127075,188.888885,-486.666656,-395.000000,-229.891495,-3.710186,-0.840042,1106
-47.961628,167.865707,983.213379,177.777771,-488.888885,-387.500000,-220.931046,-3.500175,4.830242,1107
23.980814,215.827332,1007.194214,177.777771,-484.444458,-397.500000,-216.660843,-2.940147,10.290515,1108
143.884888,215.827332,959.232544,164.444443,-488.888885,-392.500000,-211.970596,0.840042,16.030802,1109
167.865707,239.808136,995.203796,162.222229,-477.777771,-405.000000,-202.030106,5.320266,23.521175,1110
71.942444,215.827332,983.213379,153.333328,-486.666656,-397.500000,-194.609726,10.150508,30.871544,1111
83.932854,263.788971,971.222961,148.888885,-484.444458,-407.500000,-192.999649,13.510675,33.741688,1112
143.884888,407.673828,959.232544,137.777771,-482.222229,-407.500000,-192.929642,24.221210,38.501926,1113
191.846512,359.712219,911.270935,126.666664,-475.555542,-412.500000,-198.669937,36.261814,39.061954,1114
167.865707,407.673828,911.270935,120.000000,-480.000000,-412.500000,-202.380127,54.042702,35.771790,1115
167.865707,347.721802,983.213379,115.555557,-473.333344,-422.500000,-214.000702,70.423523,28.771439,1116
191.846512,419.664246,1043.165405,108.888885,-473.333344,-420.000000,-226.601334,81.484077,21.631083,1117
215.827332,383.693024,1127.098267,102.222221,-464.444458,-430.000000,-224.151215,88.694435,18.620932,1118
203.836914,347.721802,1187.050293,88.888885,-471.111115,-427.500000,-220.020996,87.364372,11.690584,1119
167.865707,335.731415,1294.963989,88.888885,-464.444458,-432.500000,-212.040604,85.964302,13.720686,1120
239.808136,347.721802,1366.906372,80.000000,-455.555542,-437.500000,-209.870499,77.213860,13.160658,1121
311.750580,287.769775,1414.868042,66.666664,-448.888885,-440.000000,-203.990204,63.563179,16.800840,1122
311.750580,299.760193,1486.810547,57.777779,-457.777771,-440.000000,-197.059860,46.762337,22.331118,1123
407.673828,263.788971,1462.829712,53.333332,-451.111115,-442.500000,-192.999649,37.451874,28.141407,1124
419.664246,251.798553,1450.839233,44.444443,-457.777771,-442.500000,-182.779144,21.771090,30.871544,1125
503.597107,263.788971,1414.868042,37.777779,-448.888885,-445.000000,-174.798737,11.970598,33.251663,1126
539.568298,287.769775,1366.906372,31.111111,-453.333344,-442.500000,-165.698288,11.130557,34.791740,1127
575.539551,287.769775,1318.944824,28.888889,-446.666656,-445.000000,-149.807495,18.760939,35.281765,1128
623.501160,311.750580,1306.954346,22.222221,-448.888885,-445.000000,-128.806442,32.201611,34.511726,1129
647.481995,335.731415,1199.040771,15.555555,-444.444458,-447.500000,-108.855446,48.162407,34.021702,1130
611.510742,371.702637,1175.059937,8.888889,-448.888885,-445.000000,-91.424576,65.453270,32.061604,1131
647.481995,287.769775,1103.117432,8.888889,-431.111115,-455.000000,-72.733635,85.054253,29.751488,1132
707.434021,311.750580,1115.107910,2.222222,-437.777771,-452.500000,-53.622681,105.495277,26.741337,1133
743.405273,311.750580,1175.059937,6.666667,-426.666656,-457.500000,-33.041653,122.296120,23.311165,1134
695.443604,323.740997,1139.088623,2.222222,-428.888885,-457.500000,-7.560378,130.836548,14.840742,1135
623.501160,239.808136,1151.079102,2.222222,-417.777771,-465.000000,22.051104,138.676941,17.430872,1136
599.520386,215.827332,1151.079102,2.222222,-415.555542,-465.000000,32.621632,145.327271,20.721037,1137
623.501160,215.827332,1247.002319,4.444445,-400.000000,-472.500000,52.362617,149.457474,28.701435,1138
611.510742,191.846512,1247.002319,6.666667,-406.666656,-475.000000,69.653481,151.557587,33.881695,1139
623.501160,143.884888,1378.896851,13.333333,-393.333344,-482.500000,85.054253,149.877502,36.541828,1140
575.539551,0.000000,1438.848877,11.111111,-393.333344,-480.000000,99.474976,142.597137,38.921947,1141
575.539551,0.000000,1450.839233,17.777779,-384.444458,-485.000000,110.465523,131.256561,40.322018,1142
599.520386,-47.961628,1558.752930,17.777779,-386.666656,-485.000000,118.795944,118.305916,40.742039,1143
587.529968,-35.971222,1570.743286,24.444445,-375.555542,-492.500000,124.186211,105.075256,39.411972,1144
575.539551,-167.865707,1630.695313,28.888889,-375.555542,-490.000000,126.286316,91.914597,38.431923,1145
563.549133,-167.865707,1702.637817,28.888889,-366.666656,-492.500000,124.466225,80.434021,37.661884,1146
503.597107,-191.846512,1702.637817,37.777779,-373.333344,-492.500000,120.476028,71.473572,35.071754,1147
539.568298,-191.846512,1690.647461,44.444443,-364.444458,-502.500000,114.945747,61.463074,31.921597,1148
527.577942,-191.846512,1702.637817,44.444443,-364.444458,-497.500000,112.145607,56.702835,30.591530,1149
503.597107,-191.846512,1642.685791,51.111111,-360.000000,-502.500000,106.965347,49.352467,25.831291,1150
503.597107,-191.846512,1630.695313,53.333332,-364.444458,-497.500000,102.905144,46.832340,21.701086,1151
431.654663,-167.865707,1558.752930,55.555557,-357.777771,-505.000000,98.074905,47.532375,17.990900,1152
383.693024,-191.846512,1462.829712,62.222221,-360.000000,-502.500000,91.774590,49.562477,14.700735,1153
407.673828,-191.846512,1462.829712,62.222221,-357.777771,-505.000000,84.844246,51.522575,11.550578,1154
431.654663,-167.865707,1414.868042,64.444443,-355.555542,-502.500000,80.014000,52.012600,10.570529,1155
395.683441,-167.865707,1390.887207,73.333336,-353.333344,-502.500000,79.593979,52.502625,10.080504,1156
383.693024,-191.846512,1342.925659,73.333336,-355.555542,-502.500000,90.094505,50.752537,9.380469,1157
347.721802,-191.846512,1318.944824,80.000000,-351.111115,-507.500000,116.905846,46.552330,6.930346,1158
359.712219,-119.904068,1127.098267,82.222221,-353.333344,-502.500000,148.827438,42.212112,5.040252,1159
203.836914,-131.894485,1270.983154,88.888885,-348.888885,-507.500000,193.349670,48.932446,0.210010,1160
263.788971,-191.846512,1127.098267,97.777779,-348.888885,-502.500000,197.059860,44.242214,1.400070,1161
